aX,aY,aZ,gX,gY,gZ
-1.332,1.457,-0.502,-137.085,221.191,168.335
-1.289,1.912,-0.747,-47.241,211.426,224.182
-1.241,2.347,-1.032,53.833,169.312,272.4
-1.131,2.806,-1.325,143.799,111.877,319.031
-0.872,3.2,-1.511,214.722,55.664,368.347
-0.564,3.506,-1.585,249.084,-8.484,401.978
-0.205,3.627,-1.596,225.403,-68.665,410.156
0.082,3.569,-1.544,161.133,-88.867,373.108
0.338,3.377,-1.355,72.144,-57.312,284.241
0.539,3.076,-1.062,-16.113,14.648,155.884
0.474,2.751,-0.795,-83.008,84.9,4.944
0.118,2.414,-0.672,-121.46,133.606,-142.334
-0.307,2.114,-0.598,-144.165,166.504,-259.338
-0.638,1.888,-0.533,-158.997,184.326,-329.407
-0.831,1.68,-0.449,-169.617,172.058,-350.098
-0.899,1.51,-0.343,-174.744,131.042,-336.792
-0.865,1.405,-0.218,-175.903,77.759,-307.861
-0.722,1.356,-0.09,-171.997,33.386,-276.733
-0.53,1.337,0.017,-164.978,9.583,-257.263
-0.352,1.336,0.089,-158.936,4.395,-255.798
-0.169,1.332,0.15,-154.48,11.78,-271.057
-0.078,1.292,0.166,-148.926,27.283,-301.941
-0.098,1.245,0.177,-145.752,48.645,-340.454
-0.11,1.197,0.235,-149.78,77.637,-370.911
-0.105,1.135,0.311,-155.762,101.929,-384.277
-0.036,1.016,0.389,-157.532,108.093,-381.47
0.061,0.908,0.45,-146.545,102.112,-369.019
0.221,0.809,0.495,-126.099,99.609,-356.567
0.397,0.746,0.505,-100.586,103.76,-351.501
0.553,0.705,0.472,-71.167,114.99,-360.718
0.668,0.662,0.442,-44.189,135.559,-388.306
0.727,0.606,0.387,-20.569,168.335,-431.702
0.753,0.531,0.315,-3.113,209.229,-483.521
0.74,0.442,0.235,5.92,248.352,-539.612
0.604,0.331,0.173,4.578,281.067,-598.694
0.357,0.207,0.198,-6.409,309.631,-650.391
0.068,0.038,0.26,-16.785,330.811,-675.964
-0.147,-0.156,0.412,-17.395,339.294,-664.185
-0.3,-0.371,0.557,8.301,333.496,-617.615
-0.284,-0.604,0.481,73.486,314.392,-549.927
-0.177,-0.753,0.23,151.794,279.541,-486.084
-0.098,-0.853,-0.075,203.491,241.272,-440.063
-0.093,-0.939,-0.305,212.402,216.187,-406.677
-0.115,-1.046,-0.404,186.096,207.092,-376.648
-0.116,-1.167,-0.415,147.095,211.792,-339.355
-0.09,-1.215,-0.38,114.502,220.337,-294.373
-0.007,-1.193,-0.374,97.534,224.426,-248.901
0.082,-1.168,-0.409,92.834,226.135,-210.999
0.125,-1.135,-0.465,92.224,227.905,-182.678
0.139,-1.095,-0.564,97.046,228.516,-156.372
0.161,-1.055,-0.721,103.821,226.929,-126.221
0.197,-1.004,-0.896,103.21,228.882,-95.398
0.228,-0.941,-1.03,90.515,238.892,-70.007
0.263,-0.875,-1.098,72.144,249.756,-50.903
0.279,-0.816,-1.141,58.044,254.639,-39.429
0.277,-0.758,-1.188,51.636,248.718,-34.546
0.245,-0.704,-1.254,49.927,233.704,-31.128
0.236,-0.682,-1.321,50.842,213.44,-26.001
0.225,-0.648,-1.369,47.485,191.223,-19.165
0.224,-0.608,-1.383,40.894,169.25,-12.207
0.232,-0.562,-1.368,31.799,146.851,-5.798
0.251,-0.525,-1.337,24.475,125.916,-1.221
0.263,-0.482,-1.3,19.165,106.934,1.282
0.269,-0.462,-1.263,15.442,90.088,2.319
0.276,-0.436,-1.234,12.146,74.646,1.16
0.281,-0.41,-1.199,10.437,60.974,-0.732
0.269,-0.404,-1.169,9.155,49.011,-3.174
0.253,-0.405,-1.142,8.545,37.476,-5.737
0.228,-0.409,-1.125,7.202,28.442,-8.362
0.207,-0.408,-1.11,4.944,21.912,-10.01
0.194,-0.394,-1.086,2.075,17.334,-11.108
0.175,-0.397,-1.064,-0.244,14.221,-11.963
0.144,-0.394,-1.05,-0.488,11.047,-12.207
0.123,-0.397,-1.052,0.122,6.958,-10.925
0.113,-0.382,-1.052,0.061,4.211,-8.118
0.1,-0.377,-1.043,-1.587,3.113,-6.714
0.076,-0.376,-1.032,-3.113,2.563,-7.08
0.065,-0.37,-1.017,-4.028,1.465,-6.531
0.059,-0.37,-1.014,-3.662,-0.183,-5.676
0.054,-0.37,-1.015,-2.686,-1.831,-5.493
0.052,-0.371,-1.005,-2.747,-3.845,-4.944
0.05,-0.371,-0.993,-3.418,-5.005,-4.761
0.048,-0.371,-0.986,-4.7,-5.432,-4.578
0.045,-0.369,-0.98,-5.005,-5.92,-3.357
0.047,-0.368,-0.971,-4.883,-6.226,-1.099
0.054,-0.361,-0.965,-5.188,-5.615,1.038
0.065,-0.349,-0.955,-5.249,-4.578,2.747
0.074,-0.339,-0.942,-4.272,-3.357,3.418
0.075,-0.333,-0.935,-2.563,-2.38,2.869
0.076,-0.332,-0.936,-0.366,-1.282,1.953
0.073,-0.333,-0.943,1.648,-0.305,1.099
0.071,-0.333,-0.954,2.747,0.916,0.732
0.067,-0.325,-0.961,2.93,1.709,0.549
0.068,-0.322,-0.969,2.869,2.258,0.122
0.066,-0.324,-0.976,3.113,2.319,-0.671
0.062,-0.323,-0.984,3.967,1.221,-1.831
0.053,-0.325,-0.995,3.906,0.305,-2.808
0.044,-0.328,-1.001,3.662,0.244,-3.052
0.044,-0.33,-0.998,2.197,0.427,-2.869
0.044,-0.331,-0.991,1.648,0.977,-2.625
0.042,-0.332,-0.989,2.075,0.732,-2.93
0.043,-0.33,-0.99,2.563,0.732,-3.113
0.046,-0.333,-0.989,2.869,0.977,-3.357
0.045,-0.337,-0.987,2.563,1.648,-3.784
0.042,-0.345,-0.987,2.502,2.502,-4.089
0.044,-0.35,-0.989,2.075,3.479,-3.784
0.047,-0.349,-0.981,1.099,4.211,-3.296
0.049,-0.346,-0.972,0.793,5.066,-2.869
0.055,-0.349,-0.972,1.404,5.554,-2.563
0.057,-0.351,-0.976,2.441,5.981,-2.38
0.06,-0.352,-0.98,2.93,6.104,-2.38
0.061,-0.346,-0.984,3.601,6.287,-2.197
0.064,-0.349,-0.988,3.662,6.165,-2.075
0.066,-0.353,-0.993,3.479,6.165,-1.709
0.067,-0.35,-0.995,3.235,6.104,-0.793
0.07,-0.34,-0.993,2.808,5.554,-0.122
0.076,-0.337,-0.994,3.662,4.639,-0.061
0.077,-0.337,-1.004,4.7,3.967,-0.732
0.079,-0.339,-1.01,4.761,3.418,-0.916
0.299,-0.821,-1.567,-3.174,-337.402,164.49
0.35,-0.812,-1.556,-16.357,-382.141,197.388
0.425,-0.796,-1.507,-34.058,-422.607,233.154
0.524,-0.768,-1.407,-53.833,-460.327,270.081
0.608,-0.679,-1.281,-71.777,-493.774,303.04
0.679,-0.594,-1.126,-90.088,-525.269,326.05
0.693,-0.537,-0.914,-106.567,-554.321,341.858
0.646,-0.472,-0.671,-114.197,-581.116,354.797
0.558,-0.445,-0.411,-113.159,-608.398,369.751
0.472,-0.437,-0.12,-106.201,-635.437,390.93
0.34,-0.463,0.263,-94.604,-657.288,415.588
0.245,-0.546,0.623,-68.848,-664.917,440.186
0.244,-0.653,0.798,-26.306,-643.799,460.083
0.351,-0.773,0.837,2.747,-594.177,464.783
0.428,-0.845,0.857,3.174,-530.029,451.355
0.473,-0.864,0.851,-14.282,-461.792,426.025
0.474,-0.862,0.858,-46.753,-397.217,400.94
0.443,-0.825,0.914,-83.74,-342.407,382.324
0.39,-0.774,0.997,-118.53,-295.776,373.047
0.307,-0.72,1.088,-147.827,-257.996,371.033
0.189,-0.656,1.19,-170.41,-229.98,373.291
0.096,-0.616,1.276,-187.012,-205.2,379.15
-0.012,-0.538,1.353,-196.594,-178.223,386.292
-0.121,-0.414,1.396,-199.341,-148.254,389.465
-0.247,-0.287,1.383,-196.045,-115.967,387.634
-0.344,-0.21,1.34,-185.852,-79.102,382.08
-0.476,-0.14,1.242,-163.635,-40.222,372.009
-0.705,-0.004,1.053,-127.869,-4.517,357.849
-1.03,0.203,0.778,-82.703,24.353,344.91
-1.428,0.46,0.403,-37.415,45.227,341.675
-1.809,0.801,-0.075,-1.77,63.599,349.792
-2.139,1.368,-0.697,24.658,83.252,365.723
-2.341,2.015,-1.335,42.175,101.99,383.728
-2.164,2.431,-1.748,41.626,116.089,391.174
-1.79,2.636,-1.913,16.113,121.399,377.625
-1.391,2.709,-1.929,-23.132,123.047,331.665
-0.972,2.682,-1.855,-61.462,133.301,257.08
-0.696,2.677,-1.764,-86.365,143.372,165.71
-0.466,2.592,-1.65,-95.52,150.757,79.224
-0.27,2.436,-1.532,-86.365,151.367,-5.005
-0.254,2.212,-1.461,-64.819,144.226,-81.543
-0.351,1.972,-1.374,-38.94,134.094,-145.935
-0.511,1.797,-1.274,-17.822,120.911,-194.214
-0.659,1.668,-1.143,-8.972,102.234,-225.464
-0.757,1.593,-0.991,-18.616,73.914,-243.774
-0.852,1.596,-0.842,-41.382,47.241,-258.545
-0.872,1.6,-0.666,-72.998,35.339,-269.104
-0.748,1.595,-0.464,-104.126,33.813,-281.311
-0.639,1.589,-0.348,-127.319,31.616,-297.18
-0.533,1.587,-0.26,-145.691,38.086,-316.406
-0.429,1.568,-0.152,-172.18,53.162,-334.167
-0.315,1.537,-0.033,-193.176,77.82,-352.966
-0.158,1.486,0.074,-209.778,100.159,-370.178
-0.053,1.412,0.159,-223.938,116.699,-375.977
0.075,1.315,0.203,-230.591,129.333,-374.695
0.25,1.228,0.218,-226.379,141.724,-370.3
0.435,1.144,0.193,-213.928,153.442,-370.667
0.544,1.074,0.174,-200.5,171.326,-382.935
0.598,1.001,0.177,-187.012,201.477,-403.931
0.63,0.91,0.146,-171.448,231.384,-424.011
0.641,0.799,0.084,-154.968,248.23,-440.063
0.677,0.678,0.014,-143.066,251.953,-451.294
0.723,0.544,-0.025,-137.756,249.084,-461.792
0.718,0.395,-0.024,-137.207,246.826,-475.586
0.654,0.274,0.019,-134.46,252.014,-490.662
0.522,0.187,0.093,-124.084,260.315,-501.404
0.426,0.076,0.185,-105.713,267.151,-504.7
0.409,-0.122,0.204,-74.402,272.705,-501.648
0.366,-0.24,0.13,-31.921,270.813,-497.375
0.331,-0.302,0.049,8.484,258.423,-495.789
0.252,-0.372,-0.013,40.588,239.685,-492.371
0.152,-0.446,-0.086,64.026,222.595,-484.802
0.036,-0.548,-0.157,77.942,214.966,-468.384
-0.054,-0.688,-0.239,82.642,214.478,-442.322
-0.103,-0.821,-0.299,80.566,218.872,-412.476
-0.154,-0.927,-0.323,73.669,223.755,-382.08
-0.201,-0.993,-0.349,71.533,223.755,-351.379
-0.253,-1.026,-0.384,76.294,216.98,-318.909
-0.294,-1.022,-0.437,85.876,205.75,-281.921
-0.295,-1.014,-0.516,100.525,193.848,-241.577
-0.292,-1.002,-0.641,114.258,186.829,-201.843
-0.281,-1.01,-0.793,120.85,187.256,-164.795
-0.249,-1.009,-0.921,115.906,192.2,-131.531
-0.189,-0.948,-0.996,103.394,195.312,-102.112
-0.125,-0.866,-1.057,91.858,193.97,-79.529
-0.077,-0.791,-1.125,84.351,188.599,-65.796
-0.044,-0.736,-1.214,80.627,179.199,-59.57
-0.029,-0.701,-1.309,77.332,166.077,-55.908
-0.018,-0.685,-1.395,70.74,150.818,-51.453
0,-0.654,-1.452,59.937,132.751,-44.922
0.016,-0.617,-1.482,46.692,112.305,-36.56
0.038,-0.572,-1.484,32.41,91.797,-29.419
0.054,-0.533,-1.464,19.958,74.219,-24.292
0.059,-0.521,-1.443,9.033,59.326,-21.545
0.054,-0.505,-1.42,0.305,47.058,-19.287
0.057,-0.494,-1.383,-8.057,37.048,-15.747
0.064,-0.468,-1.331,-15.991,29.236,-11.597
0.075,-0.446,-1.275,-22.095,23.621,-8.789
0.073,-0.441,-1.229,-26.245,18.555,-6.226
0.074,-0.423,-1.191,-27.893,12.817,-6.958
0.072,-0.407,-1.15,-28.809,6.775,-5.798
0.074,-0.385,-1.106,-28.625,0.793,-4.15
0.069,-0.374,-1.076,-26.611,-3.967,-3.54
0.059,-0.363,-1.041,-24.17,-6.592,-3.235
0.049,-0.358,-1.016,-21.606,-7.874,-2.93
0.037,-0.351,-1,-19.409,-8.118,-2.502
0.02,-0.342,-0.987,-18.25,-7.202,-2.075
0.005,-0.337,-0.967,-18.799,-6.104,0.732
-0.001,-0.319,-0.933,-18.616,-5.066,4.456
0.001,-0.302,-0.903,-16.663,-4.517,6.897
0.003,-0.3,-0.898,-12.512,-5.005,8.057
0.001,-0.308,-0.907,-8.545,-5.432,8.667
0.004,-0.308,-0.913,-6.348,-5.371,9.094
0.009,-0.303,-0.908,-6.653,-5.005,10.193
0.013,-0.296,-0.904,-5.554,-4.7,11.719
0.015,-0.293,-0.908,-4.639,-3.54,12.939
0.022,-0.274,-0.912,-3.235,-2.502,13.672
0.022,-0.261,-0.926,-1.221,0.305,12.512
0.024,-0.265,-0.946,0.549,3.967,10.132
-0.509,-0.505,1.464,-180.725,-133.85,364.319
-0.572,-0.334,1.365,-161.743,-113.281,374.573
-0.645,-0.162,1.181,-127.441,-103.271,379.028
-0.747,0.001,0.947,-86.792,-104.004,377.686
-0.921,0.186,0.656,-41.687,-112.61,372.192
-1.2,0.366,0.231,-1.648,-118.958,368.042
-1.504,0.559,-0.219,23.071,-108.154,374.817
-1.741,0.841,-0.622,30.273,-79.224,394.592
-1.911,1.307,-1.012,29.297,-51.453,419.189
-2.081,1.858,-1.423,30.457,-48.035,443.604
-2.074,2.273,-1.703,34.729,-59.753,462.097
-2.007,2.644,-1.796,15.503,-73.303,468.872
-1.791,2.976,-1.662,-31.677,-74.402,452.209
-1.469,3.198,-1.427,-82.458,-53.345,406.494
-1.129,3.369,-1.124,-118.408,-17.151,331.055
-0.68,3.275,-0.829,-145.02,22.827,251.282
-0.348,3.059,-0.597,-154.785,60.303,170.227
-0.023,2.701,-0.442,-128.357,83.74,82.581
0.077,2.314,-0.508,-82.275,83.13,0.244
-0.08,1.974,-0.654,-31.921,69.824,-76.538
-0.335,1.667,-0.766,6.958,62.012,-145.02
-0.664,1.406,-0.839,25.94,63.965,-198.425
-0.983,1.242,-0.829,21.912,69.031,-239.929
-1.197,1.161,-0.742,0.793,73.547,-267.761
-1.26,1.099,-0.559,-28.931,73.303,-275.818
-1.193,1.063,-0.36,-53.284,67.505,-269.714
-1.062,1.063,-0.18,-65.552,57.617,-260.559
-0.909,1.066,-0.04,-69.946,49.133,-256.592
-0.779,1.104,0.061,-69.214,49.255,-261.597
-0.678,1.145,0.127,-66.956,59.082,-272.278
-0.591,1.179,0.178,-62.683,74.158,-285.217
-0.496,1.206,0.197,-57.251,86.365,-299.011
-0.419,1.216,0.203,-53.65,90.881,-310.486
-0.402,1.242,0.222,-54.199,91.919,-319.702
-0.361,1.245,0.271,-60.608,96.985,-324.219
-0.255,1.205,0.322,-68.665,106.506,-319.092
-0.111,1.154,0.354,-75.012,113.953,-308.899
0.059,1.115,0.36,-77.026,118.347,-302.673
0.242,1.09,0.34,-75.134,125.061,-306.091
0.347,1.077,0.316,-75.562,140.869,-320.435
0.417,1.049,0.299,-81.482,170.41,-343.079
0.475,1.014,0.295,-89.294,205.994,-366.638
0.505,0.946,0.286,-99.182,236.389,-388
0.479,0.841,0.261,-108.032,258.911,-406.738
0.468,0.741,0.249,-115.54,276.428,-420.715
0.457,0.612,0.239,-120.728,290.222,-427.002
0.48,0.495,0.224,-119.995,300.781,-427.856
0.515,0.404,0.195,-109.436,308.716,-430.603
0.573,0.307,0.141,-94.666,312.744,-439.148
0.641,0.259,0.086,-79.651,313.843,-455.322
0.64,0.251,0.036,-63.66,316.101,-480.835
0.6,0.25,-0.001,-52.734,321.838,-508.667
0.526,0.269,-0.009,-49.744,330.994,-528.137
0.47,0.262,0.006,-53.833,344.543,-538.147
0.385,0.132,0.005,-57.434,360.84,-540.1
0.235,-0.01,0.008,-55.786,369.995,-531.372
0.152,-0.152,0,-46.082,365.601,-511.597
0.097,-0.269,-0.052,-25.085,350.586,-483.826
0.076,-0.342,-0.139,-0.427,331.36,-457.52
0.032,-0.405,-0.224,17.395,314.514,-437.073
-0.011,-0.453,-0.264,24.841,304.443,-419.617
-0.101,-0.533,-0.263,24.231,296.021,-400.085
-0.173,-0.667,-0.254,24.353,280.823,-372.986
-0.236,-0.82,-0.284,33.081,256.348,-339.05
-0.268,-0.936,-0.346,46.021,225.342,-302.429
-0.283,-1.011,-0.415,56.152,194.519,-266.907
-0.286,-1.058,-0.47,60.059,169.678,-232.91
-0.276,-1.081,-0.507,60.303,155.273,-200.745
-0.257,-1.083,-0.53,60.425,151.978,-171.631
-0.247,-1.086,-0.577,64.148,154.602,-147.4
-0.253,-1.113,-0.66,69.824,156.494,-126.16
-0.261,-1.12,-0.745,75.806,156.738,-104.248
-0.275,-1.084,-0.856,84.351,155.151,-83.252
-0.268,-1.042,-0.973,90.515,149.841,-62.012
-0.238,-0.988,-1.079,91.797,142.029,-38.818
-0.192,-0.921,-1.171,92.163,133.179,-17.517
-0.126,-0.847,-1.256,91.797,122.742,-0.427
-0.072,-0.774,-1.341,89.905,110.413,13.245
-0.02,-0.7,-1.422,85.999,97.595,23.865
0.03,-0.636,-1.485,79.346,84.839,33.02
0.08,-0.574,-1.527,69.946,71.655,38.94
0.122,-0.512,-1.554,61.218,57.434,41.992
0.161,-0.445,-1.554,50.842,42.847,43.091
0.177,-0.384,-1.544,41.443,29.968,39.673
0.169,-0.345,-1.524,32.349,18.127,33.447
0.152,-0.332,-1.497,23.254,5.432,27.039
0.119,-0.321,-1.458,14.282,-5.554,20.752
0.089,-0.313,-1.402,3.54,-13.611,15.503
0.058,-0.308,-1.324,-7.69,-19.775,11.658
0.027,-0.297,-1.237,-17.212,-24.78,8.545
0.001,-0.288,-1.146,-24.292,-28.381,6.47
-0.012,-0.277,-1.061,-28.259,-30.762,5.493
-0.015,-0.274,-0.986,-29.358,-31.067,4.7
-0.019,-0.275,-0.933,-28.442,-28.931,3.479
-0.025,-0.28,-0.894,-26.978,-24.048,2.197
-0.03,-0.287,-0.862,-26.123,-18.188,1.038
-0.036,-0.298,-0.837,-24.292,-13.306,1.038
-0.042,-0.3,-0.824,-22.095,-9.46,1.892
-0.043,-0.294,-0.814,-19.958,-6.042,3.601
-0.036,-0.29,-0.813,-17.029,-2.258,5.249
-0.028,-0.283,-0.819,-13.123,2.441,6.47
-0.017,-0.282,-0.837,-9.583,7.874,7.202
-0.005,-0.279,-0.852,-6.104,13.489,8.301
0.002,-0.285,-0.879,-2.258,17.883,9.277
0.003,-0.286,-0.907,0.671,20.203,9.949
0.002,-0.284,-0.931,2.502,21.729,11.169
0.002,-0.283,-0.951,3.906,21.851,12.146
0.005,-0.277,-0.97,5.615,21.545,12.451
0.008,-0.273,-0.986,6.958,21.362,12.695
0.01,-0.27,-1.005,8.301,21.362,12.512
0.013,-0.269,-1.028,8.789,20.996,12.146
0.015,-0.271,-1.049,8.667,19.775,11.292
0.019,-0.27,-1.06,7.263,18.127,10.315
0.025,-0.273,-1.07,6.348,15.137,9.338
0.025,-0.274,-1.082,5.432,11.353,7.751
0.03,-0.267,-1.085,4.089,7.874,6.226
0.033,-0.26,-1.082,2.319,4.7,4.822
0.032,-0.264,-1.084,0.977,2.808,2.625
0.023,-0.27,-1.087,-0.366,1.77,0.549
0.449,-0.958,-1.301,-33.447,-327.759,219.727
0.555,-0.945,-1.232,-57.983,-353.943,246.155
0.655,-0.914,-1.143,-80.017,-387.024,272.095
0.707,-0.847,-0.953,-101.746,-428.955,299.622
0.758,-0.793,-0.725,-114.38,-487.488,334.229
0.725,-0.708,-0.454,-114.258,-564.392,372.986
0.625,-0.593,-0.1,-101.99,-654.236,415.649
0.524,-0.515,0.276,-69.275,-743.713,463.135
0.473,-0.526,0.576,-9.705,-808.899,507.446
0.48,-0.518,0.709,63.354,-826.538,542.114
0.664,-0.5,0.639,127.747,-783.691,563.049
0.85,-0.493,0.556,152.832,-704.407,560.608
0.942,-0.492,0.553,141.296,-625,538.269
0.882,-0.46,0.589,117.31,-562.012,508.179
0.767,-0.49,0.637,88.501,-512.451,481.323
0.617,-0.506,0.665,54.26,-464.111,460.144
0.511,-0.517,0.695,14.221,-413.696,439.453
0.39,-0.566,0.742,-31.006,-369.934,418.457
0.192,-0.609,0.779,-76.538,-339.722,397.156
-0.023,-0.678,0.824,-119.324,-319.092,378.967
-0.248,-0.746,0.879,-162.354,-299.133,367.92
-0.472,-0.781,0.943,-200.867,-271.729,359.009
-0.675,-0.739,0.97,-226.501,-242.493,351.685
-0.821,-0.653,0.913,-230.652,-222.351,346.863
-0.887,-0.546,0.747,-215.271,-218.445,338.623
-0.972,-0.426,0.402,-186.768,-223.877,317.017
-1.2,-0.232,-0.126,-159.241,-223.694,279.541
-1.545,0.05,-0.68,-151.611,-192.505,240.601
-1.952,0.506,-1.12,-172.974,-116.943,221.558
-2.241,1.082,-1.303,-212.891,-11.963,226.257
-2.365,1.723,-1.276,-223.45,94.727,238.953
-2.312,2.272,-1.186,-197.693,154.419,261.963
-2.054,2.656,-1.091,-141.113,169.312,285.034
-1.696,2.979,-1.032,-69.885,155.701,288.94
-1.212,3.128,-0.989,-16.052,128.357,272.705
-0.677,3.056,-0.979,10.681,110.596,238.342
-0.134,2.803,-0.986,11.597,106.445,178.345
0.293,2.469,-0.996,-5.005,115.906,97.717
0.515,2.153,-0.992,-27.283,133.545,-1.038
0.481,1.946,-0.973,-42.969,153.32,-112.915
0.186,1.83,-0.917,-50.171,172.241,-221.558
-0.199,1.786,-0.804,-54.565,189.27,-309.814
-0.539,1.736,-0.65,-60.059,204.834,-372.498
-0.823,1.743,-0.49,-68.359,218.75,-413.025
-1.036,1.756,-0.388,-75.867,231.445,-435.974
-1.08,1.688,-0.327,-86.487,234.253,-437.683
-1.043,1.564,-0.31,-97.107,217.834,-424.866
-0.946,1.43,-0.306,-111.572,182.434,-408.325
-0.872,1.323,-0.309,-131.531,144.165,-390.015
-0.701,1.239,-0.285,-160.034,120.972,-369.202
-0.447,1.174,-0.222,-194.092,118.958,-350.037
-0.337,1.161,-0.142,-227.661,129.761,-343.628
-0.105,1.109,0.004,-247.986,156.25,-352.234
-0.126,1.142,0.135,-268.005,182.068,-351.868
-0.012,1.008,0.298,-282.776,204.041,-327.637
0.068,0.916,0.384,-270.447,214.661,-307.129
0.155,0.811,0.369,-237.915,212.402,-281.921
0.286,0.681,0.269,-199.768,201.294,-257.446
0.371,0.61,0.132,-167.236,186.951,-240.845
0.44,0.592,0.028,-149.109,178.101,-228.821
0.523,0.546,-0.028,-143.616,171.997,-218.811
0.591,0.494,-0.065,-141.479,168.152,-213.257
0.665,0.465,-0.087,-137.756,167.969,-212.524
0.726,0.393,-0.115,-132.507,169.8,-214.111
0.801,0.297,-0.106,-130.249,173.889,-217.651
0.863,0.223,-0.093,-126.099,179.382,-222.778
0.877,0.177,-0.085,-116.943,182.068,-232.056
0.888,0.16,-0.112,-102.417,180.847,-243.652
0.877,0.147,-0.172,-85.815,183.289,-255.798
0.87,0.135,-0.256,-73.425,196.777,-272.949
0.849,0.108,-0.325,-66.833,216.858,-292.969
0.814,0.078,-0.359,-67.383,236.206,-313.049
0.783,-0.011,-0.367,-72.632,248.962,-329.285
0.724,-0.109,-0.378,-77.393,257.202,-339.294
0.624,-0.19,-0.379,-78.247,259.094,-342.224
0.554,-0.299,-0.384,-74.036,251.587,-336.182
0.503,-0.37,-0.391,-63.66,238.708,-323.547
0.449,-0.405,-0.396,-44.861,226.562,-309.265
0.423,-0.418,-0.425,-21.79,215.454,-292.419
0.415,-0.445,-0.502,2.991,206.055,-273.804
0.42,-0.457,-0.606,23.071,200.684,-256.714
0.409,-0.47,-0.713,33.325,199.219,-242.31
0.408,-0.499,-0.786,32.532,201.965,-229.919
0.39,-0.548,-0.836,25.574,203.674,-219.36
0.364,-0.576,-0.868,16.907,200.806,-210.083
0.331,-0.593,-0.89,9.766,192.261,-201.599
0.309,-0.594,-0.89,6.104,177.063,-193.359
0.274,-0.621,-0.908,5.676,156.86,-187.561
0.231,-0.65,-0.938,8.667,135.498,-181.396
0.203,-0.661,-0.971,12.146,117.737,-171.692
0.17,-0.669,-1.015,14.221,104.492,-157.959
0.154,-0.679,-1.053,12.512,96.436,-141.541
0.137,-0.666,-1.084,9.094,95.032,-124.512
0.123,-0.638,-1.111,5.249,97.29,-108.643
0.127,-0.597,-1.118,2.136,100.403,-95.276
0.118,-0.569,-1.137,-0.061,101.746,-86.182
0.099,-0.542,-1.159,-0.427,98.938,-81.482
0.071,-0.529,-1.185,0.061,91.797,-79.102
0.041,-0.526,-1.212,0.244,81.177,-76.843
0.01,-0.52,-1.23,-1.16,68.97,-73.792
-0.014,-0.528,-1.236,-4.395,56.274,-68.176
-0.025,-0.518,-1.226,-8.911,44.922,-59.326
-0.02,-0.502,-1.197,-13.794,35.583,-49.133
-0.001,-0.474,-1.157,-17.639,28.503,-38.086
0.026,-0.44,-1.116,-17.944,23.743,-28.625
0.059,-0.421,-1.087,-15.747,20.813,-22.4
0.088,-0.417,-1.064,-12.207,19.287,-19.226
0.114,-0.413,-1.045,-9.705,16.052,-17.578
0.132,-0.404,-1.029,-7.751,12.329,-16.724
0.141,-0.398,-1.014,-7.385,8.057,-15.686
0.144,-0.395,-0.995,-8.667,3.418,-14.099
0.139,-0.391,-0.975,-9.094,-1.282,-12.207
0.127,-0.384,-0.955,-9.583,-5.493,-9.46
0.11,-0.37,-0.939,-9.888,-8.24,-7.08
0.088,-0.365,-0.922,-10.193,-8.728,-5.249
0.065,-0.346,-0.897,-9.277,-7.08,-3.113
0.05,-0.33,-0.885,-5.798,-5.066,-1.831
0.03,-0.33,-0.895,-1.709,-2.747,-1.953
0.009,-0.329,-0.911,2.014,0.488,-2.197
-1.391,1.186,-0.342,-29.846,-136.597,371.46
-1.399,1.376,-0.497,-27.466,-125,341.919
-1.417,1.578,-0.59,-38.452,-111.206,304.321
-1.43,1.761,-0.632,-60.852,-88.074,264.832
-1.407,1.955,-0.566,-89.905,-55.359,222.534
-1.406,2.181,-0.462,-121.582,-21.667,174.927
-1.238,2.339,-0.292,-146.484,10.559,126.953
-0.937,2.386,-0.14,-161.255,37.048,87.219
-0.595,2.286,-0.029,-158.081,55.481,48.462
-0.317,2.135,0.021,-139.771,60.669,1.953
-0.168,1.949,-0.023,-103.088,59.814,-47.607
-0.193,1.792,-0.119,-61.707,59.082,-99.426
-0.356,1.676,-0.209,-28.442,64.575,-146.729
-0.562,1.591,-0.26,-6.287,76.782,-188.232
-0.764,1.524,-0.256,2.014,91.797,-223.267
-0.932,1.474,-0.211,1.16,103.516,-247.681
-1.047,1.403,-0.151,-1.343,109.009,-258.728
-1.096,1.29,-0.09,-3.479,102.234,-255.981
-1.066,1.178,-0.033,0,82.642,-240.234
-0.977,1.084,0.002,9.399,54.321,-217.041
-0.842,1.012,-0.009,21.484,26.001,-191.711
-0.67,0.996,-0.035,31.128,5.493,-172.18
-0.475,1.003,-0.062,32.471,-4.211,-164.917
-0.318,1.03,-0.044,22.766,-1.038,-173.34
-0.257,1.049,0,4.333,15.686,-196.411
-0.267,1.053,0.072,-17.029,42.786,-223.511
-0.324,1.033,0.154,-36.743,69.885,-243.774
-0.352,1.002,0.249,-51.941,86.304,-249.268
-0.293,0.962,0.313,-57.495,84.778,-240.295
-0.161,0.922,0.346,-57.495,74.707,-226.624
0.028,0.916,0.338,-59.265,70.618,-218.201
0.187,0.929,0.337,-67.871,79.346,-223.511
0.302,0.926,0.331,-81.421,102.417,-240.784
0.364,0.897,0.319,-96.741,132.629,-264.771
0.401,0.859,0.299,-114.014,162.903,-288.574
0.425,0.802,0.299,-130.31,190.979,-307.251
0.464,0.708,0.315,-144.043,216.919,-318.298
0.497,0.615,0.34,-151.428,237.732,-324.341
0.547,0.523,0.334,-149.902,250.977,-327.393
0.592,0.428,0.309,-144.043,259.338,-328.735
0.659,0.365,0.277,-135.254,266.846,-330.933
0.744,0.311,0.227,-124.451,274.658,-336.06
0.807,0.276,0.126,-115.417,283.997,-345.825
0.846,0.26,0.051,-112.732,297.424,-362.366
0.893,0.232,0.039,-118.713,317.566,-383.606
0.871,0.21,0.045,-123.596,338.928,-407.288
0.779,0.211,0.072,-123.291,360.168,-431.091
0.683,0.154,0.068,-114.868,375.122,-446.411
0.61,0.056,0.021,-100.464,378.845,-448.792
0.532,-0.051,-0.07,-83.13,377.014,-443.176
0.474,-0.13,-0.162,-65.552,373.169,-431.58
0.422,-0.202,-0.242,-49.255,370.789,-415.039
0.38,-0.252,-0.304,-35.828,372.559,-393.127
0.352,-0.33,-0.381,-24.414,374.207,-367.92
0.341,-0.408,-0.466,-15.503,374.207,-341.064
0.323,-0.473,-0.551,-10.01,371.582,-314.209
0.298,-0.503,-0.61,-8.789,367.798,-290.344
0.265,-0.516,-0.64,-8.972,362.305,-271.667
0.208,-0.526,-0.671,-7.812,350.22,-257.446
0.132,-0.563,-0.694,-3.967,330.322,-245.605
0.053,-0.625,-0.74,4.395,299.255,-233.948
-0.016,-0.7,-0.808,16.174,257.202,-219.482
-0.067,-0.759,-0.883,26.672,208.435,-199.646
-0.085,-0.786,-0.948,31.677,160.767,-174.011
-0.065,-0.768,-0.978,28.259,124.268,-147.034
-0.035,-0.72,-0.963,18.982,103.882,-122.986
-0.015,-0.685,-0.927,10.62,98.145,-105.103
-0.01,-0.671,-0.903,6.775,101.501,-92.346
-0.015,-0.663,-0.907,8.118,106.079,-80.2
-0.016,-0.664,-0.948,13.184,109.009,-67.505
-0.002,-0.67,-1.001,16.663,109.131,-53.528
0.029,-0.658,-1.048,17.7,106.262,-39.795
0.058,-0.622,-1.084,18.25,101.44,-29.358
0.077,-0.588,-1.112,17.944,94.116,-23.56
0.1,-0.573,-1.139,17.029,83.13,-21.057
0.106,-0.548,-1.165,16.724,68.909,-20.325
0.114,-0.534,-1.188,16.357,54.932,-18.433
0.123,-0.512,-1.201,14.099,43.518,-17.456
0.134,-0.495,-1.193,11.23,34.607,-13.977
0.144,-0.471,-1.178,8.606,26.672,-8.85
0.147,-0.448,-1.171,7.69,20.386,-4.883
0.15,-0.427,-1.161,6.897,16.296,-1.953
0.147,-0.404,-1.154,5.188,14.343,1.038
0.141,-0.37,-1.135,3.662,13.733,1.953
0.131,-0.35,-1.115,1.831,13.428,0.61
0.108,-0.339,-1.104,1.465,12.024,-2.686
0.08,-0.33,-1.093,2.441,9.033,-5.615
0.044,-0.324,-1.087,2.808,4.578,-7.812
0.01,-0.316,-1.08,2.869,0.061,-8.911
-0.021,-0.309,-1.072,1.77,-3.479,-8.423
-0.039,-0.3,-1.059,0.122,-6.287,-7.019
-0.053,-0.289,-1.039,-2.502,-7.874,-5.676
-0.068,-0.284,-1.023,-3.601,-8.179,-5.615
-0.083,-0.295,-1.015,-3.662,-7.751,-5.066
-0.094,-0.302,-1.012,-4.7,-7.935,-3.418
-0.089,-0.288,-0.999,-5.676,-8.24,-0.549
-0.083,-0.279,-0.984,-7.019,-6.226,1.77
-0.077,-0.281,-0.972,-7.446,-3.54,2.625
-0.08,-0.285,-0.972,-6.958,-0.732,3.174
-0.077,-0.286,-0.978,-5.737,2.014,4.089
-0.068,-0.285,-0.979,-5.005,5.188,5.859
-0.059,-0.281,-0.983,-4.089,7.202,7.507
-0.048,-0.278,-0.988,-3.235,8.24,8.728
-0.036,-0.279,-0.992,-2.197,8.667,9.46
-0.028,-0.278,-0.998,-1.16,8.484,9.46
-0.019,-0.266,-0.999,-0.671,8.118,8.667
-0.012,-0.266,-1.005,0.183,7.751,7.385
-0.008,-0.278,-1.012,-0.305,7.69,6.287
-0.003,-0.283,-1.019,-0.183,7.69,5.31
0.002,-0.275,-1.017,-0.61,7.69,5.249
0.013,-0.263,-1.012,-1.038,8.24,4.822
0.021,-0.265,-1.015,-0.305,8.179,3.052
0.022,-0.276,-1.025,0.244,7.08,1.404
0.021,-0.285,-1.035,-0.183,5.249,0.305
0.023,-0.289,-1.035,-1.526,3.967,-0.122
0.023,-0.282,-1.024,-3.479,3.174,-0.916
0.021,-0.275,-1.016,-3.845,2.441,-1.953
0.02,-0.267,-1.01,-3.479,1.831,-3.296
0.014,-0.269,-1.007,-2.563,1.709,-4.639
-1.521,1.259,-0.51,31.372,-78.979,335.266
-1.566,1.479,-0.598,19.043,-86.914,334.9
-1.562,1.706,-0.63,-2.747,-88.074,328.064
-1.48,1.931,-0.577,-32.227,-79.59,310.852
-1.299,2.085,-0.454,-62.805,-62.866,284.485
-1.061,2.183,-0.3,-89.111,-38.513,248.779
-0.796,2.177,-0.164,-110.107,-12.451,200.745
-0.488,2.033,-0.02,-125.977,12.939,147.522
-0.243,1.819,0.053,-121.704,39.185,93.994
-0.145,1.641,0.03,-98.511,57.251,36.743
-0.226,1.537,-0.05,-69.458,62.927,-17.578
-0.381,1.448,-0.129,-44.739,58.655,-64.88
-0.585,1.387,-0.163,-28.748,50.903,-103.699
-0.75,1.316,-0.136,-22.827,44.189,-133.484
-0.867,1.244,-0.071,-26.611,37.537,-155.64
-0.935,1.202,0.011,-32.654,33.203,-171.448
-0.933,1.181,0.09,-35.645,30.701,-181.519
-0.884,1.167,0.161,-36.987,28.87,-188.538
-0.832,1.16,0.211,-37.292,28.687,-196.106
-0.772,1.149,0.234,-36.499,35.339,-204.285
-0.709,1.144,0.247,-35.156,48.523,-212.891
-0.639,1.134,0.259,-32.471,60.547,-221.863
-0.583,1.094,0.179,-26.184,64.148,-229.736
-0.572,1.126,0.104,-23.315,67.261,-234.375
-0.514,1.091,0.028,-27.283,62.5,-235.229
-0.479,1.083,-0.026,-34.302,61.584,-244.751
-0.426,1.076,-0.041,-51.147,66.895,-252.502
-0.359,1.075,-0.016,-77.942,75.012,-255.859
-0.297,1.055,0.042,-109.07,81.36,-255.737
-0.207,1.059,0.095,-136.169,87.097,-252.808
-0.075,1.049,0.123,-155.212,89.417,-248.474
0.043,1.031,0.13,-170.349,91.858,-247.681
0.127,1.014,0.144,-181.885,101.318,-256.165
0.147,0.995,0.143,-191.956,119.08,-267.273
0.163,0.954,0.15,-198.669,138.733,-272.888
0.193,0.894,0.161,-199.951,153.625,-271.301
0.239,0.825,0.16,-194.946,161.926,-264.099
0.318,0.77,0.147,-187.683,163.818,-253.479
0.392,0.713,0.149,-179.077,164.001,-243.164
0.463,0.667,0.129,-165.466,162.231,-235.291
0.52,0.623,0.06,-147.583,156.738,-230.53
0.594,0.581,-0.011,-133.911,152.161,-229.614
0.639,0.533,-0.105,-126.038,148.499,-232.3
0.684,0.495,-0.196,-125.183,145.874,-238.281
0.703,0.459,-0.229,-133.362,148.315,-245.422
0.715,0.426,-0.208,-146.057,154.358,-252.258
0.728,0.392,-0.139,-155.273,165.222,-258.85
0.724,0.357,-0.083,-154.968,179.81,-264.16
0.75,0.329,-0.089,-143.25,195.984,-268.311
0.794,0.298,-0.113,-127.686,211.792,-273.743
0.823,0.238,-0.173,-113.831,221.008,-282.227
0.791,0.179,-0.254,-103.027,226.562,-294.312
0.743,0.146,-0.324,-97.107,230.469,-304.687
0.679,0.127,-0.367,-95.032,230.103,-306.824
0.645,0.11,-0.38,-97.961,230.774,-303.589
0.647,0.077,-0.36,-100.708,234.619,-300.415
0.612,0.029,-0.351,-99.243,239.502,-301.636
0.552,-0.027,-0.367,-89.478,244.812,-306.58
0.504,-0.073,-0.388,-78.247,245.972,-307.678
0.469,-0.132,-0.408,-65.247,243.652,-303.65
0.429,-0.194,-0.465,-51.392,240.784,-296.692
0.397,-0.223,-0.496,-42.664,237.244,-285.583
0.357,-0.267,-0.555,-33.569,235.535,-273.132
0.32,-0.31,-0.608,-27.039,231.323,-259.521
0.287,-0.351,-0.65,-22.339,224.365,-246.094
0.255,-0.404,-0.698,-17.09,213.44,-234.741
0.219,-0.449,-0.749,-13.184,198.669,-224.976
0.194,-0.484,-0.788,-10.254,181.03,-213.684
0.187,-0.517,-0.815,-10.193,162.292,-200.195
0.172,-0.524,-0.841,-10.986,145.813,-186.035
0.169,-0.532,-0.862,-11.23,134.155,-173.096
0.157,-0.543,-0.872,-13.428,128.418,-161.133
0.147,-0.555,-0.88,-14.587,126.038,-150.94
0.137,-0.561,-0.896,-12.451,124.451,-142.517
0.125,-0.566,-0.908,-9.399,123.535,-135.01
0.119,-0.582,-0.925,-6.47,121.033,-127.808
0.105,-0.61,-0.955,-2.563,116.211,-120.3
0.097,-0.634,-1,2.197,110.046,-111.572
0.091,-0.65,-1.045,5.737,103.882,-101.135
0.098,-0.638,-1.079,6.897,97.717,-88.745
0.108,-0.609,-1.105,5.737,91.614,-76.782
0.127,-0.577,-1.114,3.845,86.792,-67.688
0.141,-0.556,-1.122,3.357,81.055,-61.829
0.137,-0.535,-1.138,5.737,74.341,-59.448
0.119,-0.53,-1.164,8.301,67.505,-57.983
0.096,-0.532,-1.196,9.155,59.692,-55.054
0.08,-0.532,-1.211,7.141,52.246,-50.354
0.075,-0.524,-1.209,3.906,44.617,-44.189
0.07,-0.5,-1.189,0.854,37.537,-38.513
0.066,-0.482,-1.168,-1.831,30.334,-33.386
0.064,-0.472,-1.144,-3.967,23.315,-28.748
0.072,-0.45,-1.11,-5.066,15.93,-25.513
0.075,-0.432,-1.075,-5.188,8.911,-24.17
0.069,-0.419,-1.048,-4.272,3.784,-24.536
0.048,-0.417,-1.03,-3.357,-0.183,-26.123
0.026,-0.414,-1.018,-2.502,-2.075,-25.818
0.018,-0.411,-1.004,-2.441,-3.662,-23.804
0.008,-0.398,-0.996,-2.319,-4.822,-21.179
-0.005,-0.388,-0.988,-2.563,-4.7,-18.677
-0.023,-0.384,-0.982,-3.967,-3.479,-16.235
-0.041,-0.379,-0.974,-5.432,-2.869,-13.977
-0.057,-0.367,-0.966,-6.348,-2.441,-11.78
-0.068,-0.357,-0.957,-6.226,-2.686,-9.583
-0.078,-0.346,-0.951,-4.333,-3.052,-8.118
-0.09,-0.343,-0.956,-2.441,-2.563,-7.141
-0.101,-0.349,-0.964,-0.732,-1.465,-6.409
-0.11,-0.348,-0.969,0.244,0.244,-5.005
-0.104,-0.338,-0.967,0.366,2.441,-3.418
-0.096,-0.338,-0.969,0.732,4.578,-1.587
-0.093,-0.341,-0.977,1.709,6.47,0.061
-0.087,-0.342,-0.986,2.075,8.057,1.77
-0.075,-0.332,-0.984,1.892,8.667,3.906
-0.061,-0.324,-0.982,1.892,8.789,5.066
-0.053,-0.32,-0.984,2.441,8.667,5.127
-0.055,-0.324,-0.996,2.93,8.606,4.578
-0.054,-0.326,-1.006,2.991,8.728,4.7
-0.049,-0.325,-1.015,2.502,8.545,5.493
-0.045,-0.317,-1.021,1.648,8.728,6.165
-0.038,-0.313,-1.019,0.488,8.301,6.104
-1.485,1.261,-0.306,-190.43,-57.312,237.427
-1.663,1.516,-0.214,-150.269,-33.081,246.521
-1.734,1.781,-0.15,-84.29,-34.363,277.283
-1.675,2.002,-0.192,-5.371,-65.491,322.51
-1.513,2.185,-0.293,59.509,-112.061,363.159
-1.253,2.353,-0.381,95.764,-143.005,384.766
-0.913,2.44,-0.396,100.83,-143.066,378.601
-0.62,2.498,-0.361,75.317,-122.192,337.83
-0.344,2.413,-0.282,28.992,-83.069,269.226
-0.136,2.265,-0.196,-16.968,-27.832,173.523
-0.03,2.091,-0.122,-52.734,29.48,62.195
-0.102,1.929,-0.109,-74.341,75.684,-41.504
-0.288,1.74,-0.1,-82.764,104.919,-126.526
-0.55,1.58,-0.074,-76.538,121.155,-187.622
-0.786,1.424,-0.033,-57.129,126.709,-220.398
-0.952,1.247,0.014,-31.799,117.859,-222.656
-1.043,1.117,0.046,-2.441,93.811,-205.2
-1.054,1.053,0.062,27.649,65.796,-180.664
-1.012,1.03,0.069,53.833,43.091,-156.311
-0.919,1.039,0.077,70.129,28.931,-138.977
-0.811,1.057,0.1,75.195,23.499,-132.812
-0.691,1.072,0.13,72.021,25.818,-139.526
-0.658,1.069,0.161,64.27,32.532,-157.227
-0.623,1.139,0.202,52.307,54.871,-183.35
-0.668,1.143,0.233,33.997,92.407,-205.811
-0.679,1.144,0.245,17.456,128.845,-231.384
-0.657,1.141,0.255,3.418,159.973,-250.977
-0.636,1.131,0.275,-9.521,176.392,-260.254
-0.6,1.104,0.29,-20.752,175.781,-261.597
-0.51,1.049,0.3,-28.198,167.358,-256.836
-0.39,0.997,0.294,-34.119,156.433,-250.549
-0.261,0.952,0.295,-42.297,147.156,-246.582
-0.143,0.916,0.289,-52.124,145.142,-246.521
-0.069,0.899,0.287,-62.439,150.269,-251.526
-0.001,0.875,0.272,-72.266,158.142,-258.057
0.046,0.867,0.253,-81.543,166.016,-263.489
0.075,0.836,0.226,-92.59,171.204,-267.822
0.105,0.78,0.235,-107.056,174.377,-267.273
0.133,0.742,0.259,-119.385,176.27,-261.353
0.195,0.7,0.293,-125.671,173.34,-251.16
0.291,0.663,0.33,-127.075,164.856,-239.563
0.413,0.619,0.332,-123.596,156.982,-230.774
0.503,0.586,0.324,-119.263,155.518,-228.333
0.567,0.569,0.312,-114.38,162.842,-232.727
0.619,0.553,0.279,-108.521,172.485,-240.417
0.655,0.541,0.237,-104.492,181.824,-249.573
0.647,0.526,0.177,-101.624,192.566,-259.644
0.638,0.504,0.104,-102.417,203.674,-267.273
0.66,0.467,0.028,-107.91,210.205,-270.081
0.715,0.43,-0.017,-117.31,213.257,-270.203
0.795,0.384,-0.026,-128.906,218.262,-272.766
0.86,0.332,-0.014,-139.343,227.539,-281.372
0.875,0.308,0,-143.005,242.493,-296.082
0.901,0.289,0.03,-141.907,261.475,-311.89
0.937,0.243,0.045,-137.024,277.832,-325.745
0.943,0.204,0.022,-127.014,290.466,-341.125
0.911,0.177,-0.042,-114.807,299.255,-358.521
0.854,0.152,-0.092,-108.337,304.993,-372.131
0.782,0.113,-0.141,-108.337,310.486,-379.7
0.73,0.063,-0.156,-113.831,317.444,-382.568
0.678,-0.032,-0.127,-120.483,325.195,-383.972
0.604,-0.151,-0.098,-121.216,329.59,-383.362
0.512,-0.235,-0.078,-112.305,329.285,-378.296
0.436,-0.32,-0.075,-95.337,322.876,-367.126
0.39,-0.388,-0.1,-72.998,309.387,-349.243
0.365,-0.451,-0.155,-45.654,293.091,-330.872
0.333,-0.517,-0.24,-18.616,278.503,-315.43
0.295,-0.568,-0.333,2.991,264.343,-301.514
0.26,-0.62,-0.427,18.86,251.343,-287.781
0.229,-0.662,-0.501,26.306,237.915,-274.17
0.192,-0.692,-0.555,29.236,223.328,-259.277
0.159,-0.709,-0.601,30.273,208.618,-244.629
0.116,-0.745,-0.65,31.921,192.81,-228.76
0.102,-0.77,-0.697,37.048,175.903,-210.876
0.079,-0.786,-0.761,44.922,160.217,-192.81
0.055,-0.79,-0.827,50.659,146.851,-174.805
0.041,-0.788,-0.889,53.467,135.437,-155.579
0.021,-0.779,-0.953,54.932,126.831,-137.695
-0.013,-0.764,-1.017,54.321,120.117,-121.46
-0.019,-0.753,-1.069,51.208,113.586,-104.736
-0.013,-0.727,-1.108,45.532,105.53,-87.463
0.005,-0.695,-1.132,39.795,95.642,-72.937
0.022,-0.661,-1.139,34.668,83.923,-62.134
0.046,-0.652,-1.144,30.09,71.228,-54.871
0.047,-0.624,-1.15,27.832,56.885,-51.331
0.044,-0.61,-1.152,27.039,42.297,-45.959
0.052,-0.602,-1.152,25.269,30.762,-38.513
0.063,-0.572,-1.146,23.132,22.522,-30.64
0.087,-0.537,-1.125,20.142,17.944,-23.193
0.099,-0.512,-1.105,17.7,16.296,-19.47
0.093,-0.503,-1.099,15.93,15.991,-18.005
0.082,-0.494,-1.099,13.733,15.808,-16.785
0.07,-0.48,-1.092,10.437,14.709,-14.282
0.055,-0.47,-1.079,6.592,12.207,-10.742
0.039,-0.464,-1.068,3.296,8.301,-6.714
0.032,-0.44,-1.051,0.488,3.784,-3.479
0.031,-0.421,-1.029,-2.136,0,-1.953
0.029,-0.403,-1.003,-3.601,-2.258,-2.502
0.021,-0.4,-0.985,-3.601,-4.578,-4.211
0.01,-0.404,-0.976,-2.93,-7.202,-5.676
0,-0.405,-0.976,-2.319,-9.094,-5.859
0.001,-0.396,-0.967,-2.991,-9.094,-4.456
0.003,-0.391,-0.944,-4.761,-7.568,-3.54
0.001,-0.386,-0.929,-5.493,-5.432,-3.54
-0.007,-0.383,-0.923,-5.249,-3.662,-3.479
-0.012,-0.375,-0.922,-4.333,-1.465,-2.991
-0.02,-0.368,-0.924,-2.686,1.831,-2.502
-0.027,-0.367,-0.927,-1.221,5.92,-2.197
-0.033,-0.372,-0.933,0,9.155,-1.282
-0.038,-0.368,-0.945,1.282,10.803,-0.549
-0.035,-0.363,-0.954,2.136,11.658,0.427
-0.029,-0.359,-0.958,2.319,11.963,0.977
-0.028,-0.366,-0.965,2.441,11.78,0.671
-0.03,-0.37,-0.97,2.197,11.169,0.977
-0.029,-0.361,-0.975,1.648,10.132,1.587
-0.02,-0.354,-0.972,1.282,10.132,2.136
-0.009,-0.351,-0.969,1.099,10.681,2.441
-0.006,-0.356,-0.972,2.014,10.254,2.075
-0.005,-0.358,-0.984,3.357,9.155,1.648
-0.765,1.289,0.636,-119.141,-179.138,196.045
-0.797,1.369,0.599,-88.196,-157.104,177.063
-0.839,1.476,0.522,-58.044,-137.756,155.273
-0.877,1.596,0.41,-31.311,-115.662,137.085
-0.872,1.707,0.245,-6.287,-91.187,130.127
-0.792,1.735,0.069,7.385,-71.716,132.446
-0.68,1.754,-0.099,8.606,-51.636,134.949
-0.533,1.79,-0.18,-3.784,-26.794,125.427
-0.354,1.792,-0.254,-34.668,1.038,112.61
-0.166,1.745,-0.239,-56.885,45.898,98.022
0.033,1.688,-0.221,-80.566,82.825,74.28
0.185,1.6,-0.214,-93.445,107.361,45.349
0.297,1.519,-0.221,-97.9,121.399,9.46
0.304,1.463,-0.245,-91.675,128.723,-28.076
0.261,1.457,-0.258,-80.078,129.456,-61.707
0.211,1.462,-0.238,-65.186,123.291,-84.167
0.172,1.475,-0.182,-50.11,108.398,-93.201
0.139,1.489,-0.089,-36.133,88.745,-91.064
0.114,1.501,0.012,-21.606,68.787,-84.656
0.105,1.492,0.102,-7.324,51.453,-78.003
0.09,1.476,0.154,6.653,39.795,-73.73
0.08,1.459,0.185,19.836,34.79,-75.623
0.068,1.433,0.203,30.029,33.936,-83.923
0.019,1.42,0.211,35.645,35.095,-99.365
-0.033,1.421,0.194,39.246,42.297,-115.906
-0.06,1.419,0.176,44.861,54.871,-127.319
-0.058,1.444,0.178,51.575,63.721,-138.428
-0.064,1.473,0.189,57.495,67.993,-151.917
-0.081,1.479,0.189,62.012,74.402,-165.894
-0.069,1.465,0.185,63.599,86.67,-179.565
-0.066,1.441,0.17,62.439,104.492,-194.397
-0.077,1.402,0.143,55.847,122.437,-212.952
-0.099,1.31,0.131,39.917,143.86,-229.248
-0.085,1.232,0.137,20.569,171.509,-243.591
-0.043,1.158,0.142,-0.122,200.5,-254.761
-0.013,1.103,0.16,-23.804,224.67,-265.32
0.022,1.037,0.187,-48.462,241.821,-273.499
0.093,0.967,0.201,-68.359,252.808,-277.588
0.14,0.925,0.199,-82.336,261.841,-280.701
0.183,0.894,0.204,-94.299,270.386,-285.095
0.214,0.818,0.194,-106.689,279.236,-288.33
0.244,0.759,0.161,-119.202,289.246,-288.208
0.291,0.694,0.137,-132.507,299.683,-285.645
0.336,0.636,0.12,-148.926,312.439,-282.349
0.36,0.586,0.128,-164.795,329.102,-279.175
0.415,0.521,0.155,-177.551,344.055,-273.132
0.462,0.427,0.146,-182.495,350.769,-264.587
0.507,0.346,0.118,-180.176,348.755,-257.446
0.534,0.279,0.064,-173.889,342.468,-251.404
0.556,0.252,0.029,-168.762,338.562,-245.911
0.577,0.199,0.004,-165.71,339.966,-241.089
0.586,0.113,-0.038,-162.17,341.614,-235.962
0.628,0.088,-0.063,-156.86,340.637,-230.591
0.655,0.052,-0.103,-147.888,337.158,-229.919
0.66,-0.017,-0.149,-139.282,334.106,-235.657
0.62,-0.078,-0.183,-130.615,333.801,-242.737
0.588,-0.133,-0.214,-119.629,330.688,-244.934
0.533,-0.188,-0.258,-105.957,324.646,-241.943
0.504,-0.256,-0.291,-90.942,318.42,-235.535
0.462,-0.324,-0.342,-74.585,310.547,-225.83
0.456,-0.366,-0.401,-56.274,302.368,-214.294
0.444,-0.405,-0.485,-36.743,294.495,-202.637
0.443,-0.464,-0.578,-22.217,285.889,-193.42
0.436,-0.5,-0.671,-11.719,278.687,-185.73
0.439,-0.493,-0.741,-3.845,272.217,-180.603
0.434,-0.49,-0.802,0.732,263.733,-177.185
0.429,-0.51,-0.852,2.441,250.305,-176.697
0.39,-0.53,-0.905,3.54,230.713,-179.504
0.339,-0.568,-0.959,2.991,205.627,-182.617
0.275,-0.619,-1.008,-1.282,175.476,-181.58
0.238,-0.679,-1.043,-6.348,144.836,-174.683
0.238,-0.698,-1.04,-12.634,118.53,-161.316
0.258,-0.685,-1.019,-18.555,97.656,-146.24
0.29,-0.684,-0.991,-22.339,83.374,-132.08
0.306,-0.688,-0.972,-24.17,77.759,-121.643
0.317,-0.682,-0.957,-23.926,77.759,-113.403
0.33,-0.681,-0.944,-23.01,79.102,-105.469
0.345,-0.656,-0.933,-20.508,80.261,-99.304
0.349,-0.64,-0.928,-16.479,80.444,-96.924
0.325,-0.649,-0.944,-11.841,78.491,-97.656
0.286,-0.67,-0.972,-9.033,72.327,-98.45
0.231,-0.685,-1.007,-8.484,62.073,-96.802
0.191,-0.695,-1.026,-11.047,51.575,-91.98
0.153,-0.671,-1.02,-14.465,43.579,-85.083
0.11,-0.657,-1.01,-16.541,36.987,-78.064
0.068,-0.629,-1.004,-15.869,30.884,-73.303
0.03,-0.628,-1.005,-12.207,25.818,-66.04
0.001,-0.621,-1.01,-8.057,22.217,-59.143
-0.026,-0.611,-1.016,-4.822,19.287,-51.819
-0.042,-0.609,-1.023,-2.869,16.541,-43.884
-0.043,-0.595,-1.024,-2.38,14.343,-35.583
-0.042,-0.585,-1.019,-2.93,12.512,-27.466
-0.034,-0.573,-1.01,-3.723,9.46,-19.287
-0.018,-0.545,-0.999,-3.967,4.822,-11.353
0,-0.502,-0.979,-3.906,0.793,-5.798
0.02,-0.48,-0.955,-3.235,-1.404,-4.028
0.029,-0.47,-0.944,-1.099,-2.747,-4.883
0.03,-0.465,-0.948,1.587,-4.517,-6.47
0.024,-0.453,-0.963,3.235,-5.127,-6.897
0.024,-0.443,-0.969,3.479,-4.089,-6.287
0.027,-0.444,-0.967,2.258,-2.441,-5.188
0.024,-0.436,-0.968,1.221,-1.465,-4.456
0.019,-0.424,-0.971,-0.183,-1.587,-3.113
0.028,-0.398,-0.959,-2.014,-1.099,-2.197
0.031,-0.384,-0.941,-2.441,0.488,-2.258
0.024,-0.383,-0.935,-0.916,1.77,-4.028
0.006,-0.385,-0.949,1.404,1.892,-5.92
-0.009,-0.384,-0.965,2.563,2.075,-7.141
-0.019,-0.377,-0.97,2.197,2.93,-7.08
-0.027,-0.371,-0.969,0.793,5.31,-6.409
-0.033,-0.379,-0.969,-0.549,7.263,-5.676
-0.036,-0.386,-0.973,-1.038,8.179,-4.517
-0.04,-0.384,-0.979,-1.709,8.057,-3.357
-0.032,-0.365,-0.971,-2.441,8.179,-1.709
-0.02,-0.36,-0.96,-2.197,7.935,-0.854
-0.017,-0.369,-0.96,-1.221,6.836,-1.404
-0.017,-0.38,-0.97,-0.244,5.554,-1.465
-0.016,-0.383,-0.981,-0.244,4.456,-0.732
-0.007,-0.372,-0.978,-1.038,4.517,0.549
-0.915,1.779,-0.009,-96.68,-28.137,155.151
-0.811,1.91,0.005,-100.159,12.207,162.231
-0.699,2.023,0.011,-90.942,44.983,170.654
-0.571,2.123,0.013,-64.392,68.542,176.758
-0.417,2.167,-0.02,-29.846,72.449,177.49
-0.272,2.172,-0.113,1.221,59.814,170.593
-0.135,2.113,-0.243,23.132,46.265,155.579
-0.001,2.012,-0.378,32.898,44.922,131.226
0.092,1.901,-0.499,27.283,56.335,96.252
0.142,1.772,-0.575,12.268,78.918,53.284
0.119,1.67,-0.612,-7.385,103.21,6.531
0.062,1.561,-0.597,-22.522,123.047,-35.889
-0.056,1.516,-0.531,-33.752,125.793,-73.12
-0.201,1.542,-0.433,-39.917,108.276,-97.778
-0.344,1.523,-0.293,-36.438,84.534,-102.539
-0.435,1.453,-0.167,-28.137,58.96,-96.863
-0.479,1.4,-0.065,-18.25,38.208,-88.745
-0.478,1.364,0.011,-6.104,26.184,-81.848
-0.447,1.345,0.061,6.348,18.616,-79.956
-0.407,1.335,0.1,16.235,14.038,-85.693
-0.408,1.313,0.129,19.592,15.015,-95.642
-0.439,1.266,0.13,15.686,24.475,-105.103
-0.439,1.19,0.128,6.104,41.87,-110.229
-0.427,1.094,0.13,-5.188,60.059,-111.145
-0.417,1.011,0.126,-13.55,69.824,-109.619
-0.433,0.974,0.116,-16.724,64.636,-105.164
-0.41,0.962,0.113,-15.625,47.974,-95.947
-0.33,0.978,0.115,-13.855,28.748,-82.764
-0.176,0.994,0.123,-17.944,14.282,-73.364
-0.011,1.009,0.155,-29.968,11.658,-76.294
0.098,1.03,0.188,-46.326,23.987,-94.177
0.177,1.027,0.235,-64.575,47.668,-120.789
0.236,1.016,0.307,-82.703,78.491,-149.414
0.259,0.99,0.345,-95.764,111.267,-176.819
0.256,0.947,0.347,-104.309,141.846,-200.073
0.262,0.904,0.324,-112.976,166.077,-215.515
0.342,0.846,0.288,-123.535,184.448,-222.229
0.451,0.795,0.254,-136.536,200.5,-226.379
0.567,0.763,0.227,-150.879,217.224,-233.765
0.667,0.737,0.205,-163.269,235.596,-247.009
0.762,0.715,0.188,-174.622,258.301,-264.526
0.831,0.681,0.175,-182.861,285.156,-284.424
0.886,0.634,0.133,-186.89,310.608,-305.969
0.939,0.561,0.058,-187.744,330.933,-326.66
0.969,0.485,-0.029,-188.171,346.008,-347.046
0.965,0.431,-0.118,-189.575,354.431,-369.019
0.932,0.408,-0.179,-194.397,360.779,-389.16
0.895,0.397,-0.208,-200.012,370.239,-407.532
0.847,0.377,-0.212,-203.369,385.803,-423.523
0.757,0.34,-0.21,-204.712,403.625,-434.814
0.639,0.293,-0.215,-204.895,419.373,-440.125
0.563,0.193,-0.199,-198.364,428.04,-436.646
0.476,0.051,-0.201,-186.707,429.016,-425.537
0.386,-0.082,-0.222,-166.87,419.067,-413.33
0.295,-0.208,-0.27,-140.442,399.78,-399.963
0.223,-0.304,-0.341,-112.366,371.704,-382.69
0.161,-0.383,-0.424,-83.13,339.905,-361.145
0.112,-0.425,-0.513,-54.688,309.082,-337.891
0.082,-0.461,-0.606,-31.982,282.776,-313.232
0.073,-0.5,-0.679,-18.799,259.766,-288.818
0.043,-0.579,-0.74,-15.198,237.488,-266.113
0.023,-0.678,-0.769,-17.578,212.097,-245.239
0.001,-0.764,-0.781,-19.775,181.641,-226.257
-0.039,-0.8,-0.798,-16.846,150.574,-207.764
-0.055,-0.803,-0.808,-12.329,126.038,-187.683
-0.065,-0.819,-0.819,-8.484,109.558,-167.114
-0.048,-0.832,-0.831,-5.066,99.976,-146.118
-0.029,-0.827,-0.854,-0.977,95.215,-126.404
-0.006,-0.814,-0.891,2.563,94.849,-108.704
0.025,-0.795,-0.923,5.127,96.619,-92.957
0.06,-0.78,-0.95,6.531,97.351,-78.125
0.084,-0.757,-0.987,9.521,94.238,-65.002
0.101,-0.727,-1.034,12.512,88.318,-54.199
0.111,-0.705,-1.082,13.672,80.383,-45.41
0.114,-0.689,-1.127,12.268,71.289,-38.33
0.115,-0.653,-1.155,10.071,61.829,-32.41
0.118,-0.614,-1.173,6.287,52.673,-27.039
0.119,-0.579,-1.183,2.563,44.189,-23.499
0.11,-0.55,-1.188,0.61,35.461,-20.691
0.101,-0.521,-1.195,-0.854,26.611,-17.395
0.094,-0.483,-1.196,-2.197,19.043,-14.404
0.098,-0.483,-1.185,-5.249,13.062,-11.658
0.088,-0.453,-1.168,-9.888,7.812,-13.428
0.074,-0.431,-1.133,-13.062,2.991,-11.78
0.066,-0.42,-1.091,-15.869,-3.784,-10.986
0.046,-0.406,-1.054,-15.381,-9.827,-11.658
0.027,-0.392,-1.022,-13.855,-14.709,-12.878
0.019,-0.392,-0.987,-13.184,-17.029,-13.916
0.004,-0.387,-0.953,-13,-16.907,-15.93
-0.021,-0.373,-0.926,-12.573,-16.052,-16.418
-0.023,-0.38,-0.901,-12.573,-14.526,-14.954
-0.03,-0.381,-0.883,-11.658,-13.062,-12.146
-0.035,-0.375,-0.873,-10.071,-10.986,-9.827
-0.037,-0.373,-0.862,-9.338,-8.545,-7.202
-0.037,-0.37,-0.857,-8.606,-5.92,-4.822
-0.036,-0.362,-0.855,-7.996,-3.357,-2.686
-0.038,-0.355,-0.858,-6.592,-0.366,-0.366
-0.032,-0.351,-0.863,-4.944,2.441,2.197
-0.018,-0.336,-0.87,-3.174,5.127,3.479
-0.015,-0.326,-0.882,-1.038,7.996,2.502
-0.014,-0.325,-0.896,1.831,10.742,0.793
-0.018,-0.331,-0.922,4.456,12.085,-0.366
-0.018,-0.327,-0.944,7.08,13.062,-0.793
-0.016,-0.327,-0.96,8.789,14.343,-0.977
-0.018,-0.337,-0.98,9.644,14.954,-1.16
-0.024,-0.341,-1.002,10.01,14.526,-1.16
-0.025,-0.341,-1.019,9.155,14.343,-0.427
-0.016,-0.338,-1.024,7.446,14.404,0.732
-0.01,-0.335,-1.028,6.287,13.977,1.404
-0.011,-0.338,-1.037,5.493,12.512,1.709
-0.013,-0.341,-1.046,4.211,10.437,2.319
-0.015,-0.342,-1.049,2.136,8.728,3.357
-0.015,-0.337,-1.044,-0.488,7.69,4.639
-0.017,-0.337,-1.036,-2.563,6.531,5.432
-0.013,-0.333,-1.031,-3.845,5.432,6.042
-0.004,-0.326,-1.019,-4.7,4.456,5.798
0.003,-0.322,-1.009,-4.761,3.723,4.211
0.004,-0.331,-1.004,-3.723,2.625,1.831
0.001,-0.34,-1.002,-2.869,1.77,-0.122
-0.921,1.659,0.067,8.911,-8.911,158.875
-0.925,1.832,-0.133,52.856,-36.255,158.63
-0.909,1.974,-0.434,88.318,-62.317,162.354
-0.841,2.09,-0.694,101.807,-80.139,171.997
-0.668,2.218,-0.882,85.266,-76.05,178.101
-0.432,2.311,-0.935,50.598,-40.527,179.199
-0.151,2.312,-0.879,8.362,14.099,170.105
0.148,2.231,-0.742,-24.902,71.106,147.095
0.397,2.101,-0.601,-42.725,110.474,106.689
0.528,1.942,-0.546,-45.776,126.709,52.307
0.509,1.802,-0.545,-35.95,132.08,-5.493
0.398,1.699,-0.569,-21.851,129.272,-53.711
0.256,1.572,-0.581,-6.958,120.667,-83.618
0.076,1.471,-0.561,7.263,105.774,-96.497
-0.052,1.371,-0.469,21.545,85.266,-97.351
-0.186,1.35,-0.391,29.907,52.307,-88.684
-0.282,1.292,-0.287,35.156,21.545,-73.486
-0.365,1.215,-0.167,36.987,1.77,-63.843
-0.391,1.274,-0.031,37.842,1.282,-62.317
-0.36,1.243,0.117,32.043,12.939,-54.749
-0.324,1.249,0.235,34.18,24.536,-59.326
-0.305,1.263,0.305,44.739,33.142,-70.496
-0.309,1.249,0.324,56.824,44.617,-83.496
-0.318,1.224,0.315,66.528,61.89,-98.267
-0.345,1.227,0.281,68.787,82.153,-114.258
-0.374,1.208,0.242,63.721,100.83,-126.709
-0.352,1.181,0.226,50.415,117.249,-132.446
-0.296,1.143,0.202,34.363,128.418,-134.277
-0.215,1.115,0.208,17.334,136.658,-137.146
-0.125,1.094,0.237,0.732,144.592,-142.639
-0.031,1.092,0.276,-12.756,155.518,-150.574
0.05,1.055,0.284,-22.888,169.556,-161.743
0.129,1.028,0.29,-34.363,187.927,-175.11
0.202,1,0.281,-48.218,210.449,-190.979
0.247,0.969,0.266,-64.209,232.361,-206.238
0.271,0.919,0.262,-81.665,250.366,-219.482
0.277,0.863,0.265,-97.473,265.381,-227.661
0.311,0.798,0.245,-108.887,274.414,-228.027
0.376,0.738,0.211,-117.31,278.198,-223.999
0.462,0.711,0.175,-122.864,276.367,-221.558
0.55,0.705,0.144,-127.625,270.447,-224.121
0.614,0.7,0.117,-131.104,264.221,-231.445
0.648,0.687,0.106,-134.521,262.39,-240.417
0.681,0.665,0.082,-138.428,266.235,-247.925
0.732,0.628,0.041,-142.09,274.048,-252.747
0.774,0.582,-0.005,-145.447,284.668,-257.324
0.805,0.535,-0.045,-149.475,294.006,-263.672
0.801,0.458,-0.107,-152.161,299.744,-271.179
0.786,0.399,-0.165,-152.954,304.932,-278.381
0.787,0.379,-0.243,-151.855,310.486,-284.058
0.8,0.358,-0.316,-153.076,319.458,-288.208
0.807,0.33,-0.374,-158.569,334.839,-292.603
0.802,0.299,-0.417,-166.687,352.539,-295.776
0.805,0.251,-0.46,-172.546,365.906,-296.021
0.813,0.18,-0.5,-176.453,375.183,-295.471
0.823,0.109,-0.522,-178.284,381.836,-296.57
0.79,0.04,-0.544,-176.941,387.573,-302.246
0.735,-0.002,-0.551,-170.471,390.686,-309.57
0.641,-0.058,-0.575,-158.875,386.78,-314.697
0.549,-0.137,-0.592,-146.484,371.277,-314.148
0.482,-0.223,-0.608,-133.667,343.506,-307.434
0.43,-0.28,-0.619,-115.662,306.763,-298.767
0.382,-0.337,-0.631,-96.069,265.503,-291.626
0.333,-0.405,-0.646,-78.918,220.032,-285.156
0.306,-0.467,-0.657,-66.406,172.302,-277.039
0.287,-0.506,-0.654,-58.472,128.845,-267.761
0.262,-0.549,-0.629,-55.786,95.581,-258.362
0.244,-0.597,-0.59,-56.946,74.219,-249.512
0.206,-0.64,-0.54,-59.509,65.857,-239.685
0.174,-0.683,-0.48,-61.34,66.101,-228.271
0.132,-0.741,-0.43,-60.303,69.946,-214.355
0.115,-0.805,-0.397,-54.199,74.402,-197.754
0.094,-0.832,-0.396,-44.189,76.477,-177.856
0.09,-0.847,-0.412,-33.142,78.064,-158.02
0.097,-0.87,-0.427,-24.414,81.055,-138.428
0.101,-0.889,-0.452,-15.381,82.581,-120.911
0.099,-0.887,-0.491,-5.676,82.214,-107.178
0.093,-0.868,-0.536,3.662,80.017,-96.13
0.083,-0.86,-0.599,12.085,77.82,-85.388
0.079,-0.831,-0.658,20.02,76.538,-74.829
0.074,-0.8,-0.728,26.794,75.867,-63.66
0.071,-0.772,-0.799,31.311,75.439,-53.284
0.057,-0.738,-0.878,35.767,74.585,-43.152
0.049,-0.695,-0.954,39.429,71.411,-32.532
0.059,-0.645,-1.013,40.344,66.895,-22.583
0.069,-0.618,-1.065,40.71,61.89,-15.503
0.066,-0.576,-1.112,38.879,54.81,-13.123
0.068,-0.541,-1.142,37.476,44.8,-10.498
0.067,-0.521,-1.171,35.767,33.203,-8.118
0.052,-0.504,-1.195,33.691,22.156,-6.836
0.041,-0.479,-1.203,29.419,14.221,-5.859
0.026,-0.47,-1.192,23.682,9.277,-4.517
0.011,-0.458,-1.175,17.395,6.409,-3.54
0.001,-0.439,-1.149,11.902,4.272,-2.197
0.001,-0.428,-1.117,7.385,1.587,0.122
-0.006,-0.425,-1.086,4.211,-1.099,0.854
-0.019,-0.422,-1.063,1.77,-3.052,0.793
-0.024,-0.425,-1.031,-1.648,-5.066,1.16
-0.027,-0.423,-0.999,-5.676,-7.141,1.282
-0.028,-0.405,-0.964,-8.24,-8.85,0.61
-0.028,-0.405,-0.937,-9.705,-10.01,0.61
-0.024,-0.413,-0.914,-9.216,-10.681,0.854
-0.018,-0.413,-0.896,-7.874,-10.132,1.831
0,-0.402,-0.878,-6.714,-8.606,2.93
0.006,-0.399,-0.872,-4.517,-5.432,2.075
0.014,-0.406,-0.872,-2.075,-1.465,0.977
0.02,-0.409,-0.886,0.671,2.136,0.671
0.024,-0.401,-0.9,2.808,4.883,0.671
0.029,-0.397,-0.909,4.761,8.118,0.427
0.028,-0.401,-0.923,5.676,10.071,-1.038
0.019,-0.404,-0.941,6.226,10.315,-2.258
0.008,-0.412,-0.955,6.348,9.338,-2.808
-0.001,-0.405,-0.969,5.188,7.996,-2.38
-0.004,-0.402,-0.973,4.15,7.446,-1.526
-0.007,-0.396,-0.976,2.869,7.996,-0.793
-0.01,-0.397,-0.983,2.686,8.301,-0.61
-0.011,-0.393,-0.988,2.441,8.118,-0.732
-0.013,-0.387,-0.99,1.831,7.874,-1.282
-0.016,-0.388,-0.99,1.77,7.874,-2.136
-1.434,1.681,-0.172,-134.033,-229.675,333.252
-1.318,1.877,-0.189,-142.517,-189.575,336.975
-1.151,2.062,-0.153,-141.785,-152.649,328.796
-1.031,2.278,-0.106,-128.479,-128.174,304.81
-0.96,2.485,-0.029,-107.544,-113.77,270.996
-0.827,2.619,0.07,-83.008,-94.971,242.004
-0.598,2.664,0.159,-53.284,-60.974,219.543
-0.326,2.603,0.179,-20.569,-20.996,191.711
-0.1,2.428,0.116,5.798,11.047,149.231
0.017,2.193,-0.031,23.254,36.438,92.773
0.077,1.891,-0.179,28.625,61.035,30.396
0.046,1.561,-0.316,23.254,87.402,-32.532
-0.121,1.281,-0.415,8.667,110.352,-94.666
-0.347,1.031,-0.431,-15.503,124.329,-147.278
-0.557,0.833,-0.343,-42.969,129.639,-176.636
-0.707,0.676,-0.151,-66.833,125.122,-178.955
-0.757,0.572,0.078,-79.956,112.366,-161.621
-0.752,0.57,0.29,-81.36,93.872,-137.817
-0.702,0.628,0.458,-71.777,74.28,-115.417
-0.616,0.725,0.557,-51.086,60.242,-94.91
-0.51,0.825,0.606,-24.536,52.795,-79.59
-0.434,0.937,0.595,2.319,50.415,-71.594
-0.354,1.048,0.544,25.635,53.04,-70.19
-0.252,1.129,0.489,43.762,59.021,-73.669
-0.252,1.212,0.354,53.711,61.584,-83.984
-0.27,1.267,0.242,52.49,74.28,-92.651
-0.237,1.241,0.195,43.579,93.506,-96.924
-0.198,1.239,0.166,31.006,105.896,-108.093
-0.179,1.261,0.159,17.7,110.474,-118.652
-0.137,1.298,0.184,4.517,108.704,-123.718
-0.071,1.319,0.213,-5.371,104.614,-128.54
-0.001,1.324,0.24,-13.306,107.056,-138.55
0.047,1.313,0.244,-20.996,117.676,-156.982
0.053,1.279,0.255,-29.419,136.108,-179.687
0.056,1.23,0.27,-37.72,160.767,-203.491
0.043,1.162,0.3,-46.204,184.387,-222.717
0,1.072,0.295,-51.453,200.562,-233.765
-0.018,0.991,0.259,-53.223,207.092,-233.948
0.016,0.924,0.197,-51.758,203.186,-225.586
0.095,0.853,0.128,-53.406,190.125,-214.722
0.168,0.806,0.075,-62.439,175.232,-208.313
0.23,0.799,0.072,-78.369,166.077,-207.458
0.271,0.784,0.096,-96.619,164.978,-208.618
0.316,0.773,0.132,-111.328,168.64,-208.069
0.389,0.762,0.175,-120.85,172.668,-206.848
0.484,0.759,0.192,-124.817,174.622,-206.604
0.58,0.744,0.196,-124.939,173.828,-209.167
0.625,0.727,0.191,-125.122,173.767,-216.919
0.632,0.695,0.164,-125,178.65,-226.746
0.62,0.656,0.138,-125.916,186.401,-233.398
0.628,0.608,0.106,-127.502,192.688,-233.459
0.672,0.563,0.063,-129.15,194.763,-228.333
0.727,0.531,-0.001,-129.517,195.801,-224.426
0.768,0.51,-0.073,-133.362,201.355,-226.685
0.782,0.49,-0.112,-143.005,214.05,-232.971
0.829,0.462,-0.121,-155.457,228.027,-238.77
0.869,0.426,-0.135,-165.1,237.976,-244.873
0.913,0.398,-0.168,-169.556,244.019,-252.625
0.941,0.368,-0.195,-171.326,249.573,-264.648
0.945,0.308,-0.22,-171.082,256.409,-280.762
0.878,0.212,-0.245,-170.166,265.808,-297.241
0.79,0.121,-0.266,-167.969,272.522,-307.19
0.692,0.041,-0.291,-162.354,272.827,-305.969
0.643,-0.028,-0.319,-152.405,269.226,-293.457
0.626,-0.091,-0.36,-140.869,262.695,-276.184
0.628,-0.127,-0.406,-128.723,257.446,-260.132
0.637,-0.169,-0.443,-117.676,255.249,-249.451
0.633,-0.208,-0.46,-108.765,255.92,-244.385
0.61,-0.262,-0.478,-100.22,255.249,-243.408
0.583,-0.314,-0.499,-90.393,250.061,-242.981
0.551,-0.349,-0.512,-79.956,242.737,-243.347
0.536,-0.391,-0.511,-68.726,234.253,-244.446
0.499,-0.442,-0.517,-53.528,224.67,-248.779
0.461,-0.47,-0.533,-36.499,213.928,-255.31
0.406,-0.478,-0.559,-17.639,201.538,-263
0.375,-0.505,-0.58,-2.075,186.584,-269.104
0.334,-0.55,-0.597,9.521,166.016,-271.118
0.334,-0.572,-0.599,18.127,140.808,-269.287
0.364,-0.592,-0.574,25.818,115.906,-266.602
0.357,-0.651,-0.573,30.579,92.468,-264.954
0.344,-0.67,-0.562,30.029,73.181,-263.245
0.286,-0.685,-0.55,27.344,64.941,-258.911
0.252,-0.718,-0.517,19.165,67.932,-250.671
0.181,-0.746,-0.482,11.536,76.599,-236.877
0.109,-0.763,-0.47,12.817,86.365,-218.933
0.035,-0.78,-0.495,21.851,96.13,-196.472
-0.041,-0.808,-0.576,37.903,107.91,-171.631
-0.102,-0.837,-0.697,53.223,119.324,-143.677
-0.133,-0.851,-0.828,64.209,128.54,-114.441
-0.147,-0.825,-0.956,68.054,135.986,-87.28
-0.136,-0.817,-1.06,65.552,139.221,-64.148
-0.112,-0.784,-1.134,58.472,134.277,-48.279
-0.104,-0.743,-1.187,52.49,120.85,-36.56
-0.087,-0.719,-1.228,48.096,100.83,-28.992
-0.084,-0.685,-1.268,44.617,78.125,-24.109
-0.075,-0.656,-1.293,40.161,55.786,-18.799
-0.066,-0.64,-1.304,33.447,36.621,-12.146
-0.046,-0.618,-1.298,25.879,22.705,-5.188
-0.022,-0.596,-1.275,18.372,13.55,3.113
0.003,-0.583,-1.25,10.925,7.751,12.451
0.033,-0.559,-1.223,3.418,3.845,20.691
0.063,-0.528,-1.181,-3.357,0.916,26.672
0.098,-0.498,-1.118,-9.705,-1.831,29.602
0.121,-0.47,-1.063,-13.794,-5.615,27.283
0.123,-0.442,-1.021,-15.259,-10.315,21.301
0.112,-0.426,-0.995,-15.564,-15.259,14.648
0.095,-0.427,-0.974,-15.869,-19.104,8.423
0.077,-0.424,-0.956,-16.174,-22.339,3.479
0.05,-0.419,-0.941,-17.029,-24.353,-0.122
0.028,-0.415,-0.921,-18.738,-24.658,-2.38
0.004,-0.402,-0.897,-19.409,-23.621,-3.845
-0.021,-0.403,-0.883,-19.775,-21.423,-4.7
-0.045,-0.402,-0.875,-19.287,-19.043,-4.944
-0.062,-0.397,-0.863,-18.372,-16.052,-4.395
-0.071,-0.393,-0.849,-17.7,-12.207,-3.723
-0.071,-0.391,-0.836,-15.93,-8.545,-3.235
-0.069,-0.391,-0.826,-13.733,-5.859,-3.357
-0.074,-0.395,-0.827,-10.254,-3.296,-4.028
-0.078,-0.405,-0.834,-7.324,-0.793,-4.456
-0.761,1.673,-0.926,17.822,-6.165,181.03
-0.739,1.892,-1.03,17.395,-21.301,178.955
-0.702,2.04,-1.047,15.93,-33.02,180.42
-0.625,2.237,-0.965,12.146,-45.471,179.565
-0.493,2.443,-0.863,12.573,-60.73,180.176
-0.327,2.564,-0.738,21.118,-79.59,181.641
-0.168,2.641,-0.626,28.015,-89.661,175.842
0.035,2.632,-0.529,26.245,-75.867,160.217
0.177,2.556,-0.44,15.869,-41.199,125.732
0.281,2.38,-0.34,0.916,-3.479,75.5
0.26,2.14,-0.258,-9.644,28.198,14.832
0.143,1.845,-0.178,-16.357,47.485,-43.823
-0.057,1.562,-0.112,-20.752,59.326,-91.248
-0.281,1.304,-0.022,-23.926,64.209,-116.943
-0.45,1.067,0.104,-24.536,60.242,-121.46
-0.559,0.867,0.252,-23.926,46.814,-112.183
-0.624,0.755,0.384,-24.963,29.846,-96.497
-0.631,0.716,0.488,-25.818,18.372,-78.003
-0.589,0.724,0.544,-24.109,15.015,-60.303
-0.525,0.767,0.569,-19.592,18.433,-46.57
-0.452,0.826,0.561,-13.611,23.193,-37.781
-0.386,0.89,0.554,-7.507,28.076,-31.128
-0.315,0.936,0.531,-0.183,32.471,-26.855
-0.267,1.004,0.495,9.094,34.485,-24.658
-0.236,1.094,0.441,18.677,32.837,-22.827
-0.174,1.177,0.37,27.405,30.64,-21.362
-0.118,1.243,0.307,31.25,32.654,-21.667
-0.059,1.283,0.263,30.273,36.621,-29.297
-0.023,1.33,0.24,25.94,45.288,-45.471
-0.022,1.344,0.232,19.348,59.204,-64.026
0.002,1.319,0.224,13.367,76.599,-83.496
0.032,1.286,0.202,10.132,94.299,-101.379
0.058,1.235,0.169,7.935,109.619,-118.835
0.083,1.177,0.14,4.517,122.681,-135.132
0.097,1.13,0.117,-1.16,135.315,-151.245
0.11,1.105,0.106,-8.057,146.606,-165.833
0.139,1.064,0.095,-15.381,155.701,-177.734
0.182,1.016,0.094,-23.499,163.635,-187.866
0.208,0.976,0.084,-33.142,171.387,-198.73
0.226,0.949,0.076,-45.288,180.42,-208.923
0.235,0.911,0.082,-61.584,190.491,-216.919
0.269,0.867,0.096,-78.857,198.853,-220.459
0.329,0.838,0.103,-91.736,203.491,-220.642
0.392,0.825,0.108,-101.868,204.041,-220.825
0.452,0.819,0.107,-108.582,202.698,-222.961
0.508,0.824,0.1,-112.183,201.172,-226.013
0.57,0.815,0.095,-115.051,201.538,-231.445
0.597,0.816,0.094,-118.896,205.2,-239.319
0.605,0.788,0.09,-121.948,212.097,-247.742
0.615,0.766,0.071,-123.23,219.91,-251.343
0.644,0.724,0.03,-123.474,224.915,-251.526
0.683,0.668,-0.007,-126.465,228.455,-250.732
0.732,0.621,-0.038,-132.812,233.887,-250.183
0.78,0.613,-0.057,-141.602,242.737,-252.686
0.824,0.592,-0.066,-149.231,252.625,-259.338
0.846,0.578,-0.066,-151.917,263.428,-269.226
0.838,0.521,-0.11,-148.499,269.653,-279.297
0.835,0.471,-0.171,-142.944,272.034,-286.438
0.834,0.426,-0.227,-139.709,270.142,-292.358
0.817,0.371,-0.279,-139.526,265.625,-296.875
0.782,0.311,-0.303,-142.09,261.292,-301.453
0.758,0.255,-0.289,-145.752,260.681,-304.565
0.74,0.185,-0.253,-145.081,262.146,-305.176
0.716,0.131,-0.225,-138.489,260.315,-304.81
0.691,0.091,-0.224,-125.183,252.869,-305.054
0.654,0.042,-0.219,-108.398,244.629,-305.481
0.623,-0.044,-0.212,-91.736,233.521,-303.284
0.556,-0.117,-0.218,-74.89,214.966,-296.936
0.523,-0.19,-0.222,-56.824,190.125,-285.522
0.508,-0.271,-0.213,-41.687,160.645,-267.883
0.515,-0.32,-0.191,-26.855,128.296,-247.314
0.552,-0.333,-0.154,-11.108,97.961,-228.027
0.616,-0.327,-0.086,4.272,74.707,-213.867
0.676,-0.344,-0.035,23.743,60.608,-208.801
0.713,-0.361,-0.017,45.471,54.138,-212.341
0.73,-0.387,-0.031,65.491,56.458,-220.093
0.699,-0.429,-0.079,79.956,69.275,-229.492
0.639,-0.484,-0.155,88.196,94.543,-237.793
0.54,-0.526,-0.231,88.867,129.578,-239.624
0.452,-0.558,-0.297,84.412,171.265,-233.948
0.347,-0.571,-0.378,81.36,211.67,-222.961
0.241,-0.551,-0.477,82.397,249.878,-209.351
0.132,-0.521,-0.587,90.515,286.987,-197.144
0.008,-0.531,-0.735,104.431,318.665,-190.063
-0.143,-0.557,-0.906,121.338,338.867,-186.829
-0.277,-0.588,-1.096,136.23,336.731,-183.044
-0.374,-0.617,-1.286,146.301,304.871,-176.514
-0.443,-0.626,-1.488,149.231,247.437,-167.114
-0.473,-0.654,-1.654,139.465,174.988,-153.198
-0.497,-0.66,-1.754,115.112,101.868,-138.733
-0.518,-0.623,-1.758,82.825,43.701,-121.582
-0.529,-0.567,-1.679,48.645,7.263,-100.281
-0.502,-0.505,-1.549,20.02,-7.568,-76.355
-0.441,-0.471,-1.428,2.747,-8.484,-52.673
-0.354,-0.46,-1.351,-3.296,-0.732,-32.654
-0.258,-0.473,-1.307,-5.92,11.292,-17.7
-0.17,-0.493,-1.279,-8.179,22.095,-7.629
-0.099,-0.498,-1.25,-12.756,28.625,-1.587
-0.043,-0.491,-1.209,-20.569,30.273,2.197
-0.004,-0.483,-1.164,-28.625,27.039,4.333
0.021,-0.469,-1.12,-35.278,20.02,5.981
0.043,-0.451,-1.076,-40.222,11.902,7.507
0.058,-0.429,-1.032,-42.664,4.456,8.545
0.068,-0.407,-0.998,-41.565,-0.183,8.484
0.063,-0.407,-0.983,-39.124,-2.686,7.263
0.05,-0.398,-0.975,-37.17,-2.808,5.798
0.032,-0.389,-0.967,-36.072,-0.183,4.333
0.011,-0.389,-0.96,-36.011,4.578,3.601
-0.002,-0.387,-0.949,-35.767,8.667,4.333
-0.013,-0.384,-0.942,-35.706,11.597,6.226
-0.017,-0.372,-0.933,-35.278,12.146,8.301
-0.018,-0.366,-0.919,-34.424,11.23,10.132
-0.015,-0.361,-0.9,-32.532,8.789,11.292
-0.012,-0.363,-0.892,-29.175,5.127,12.024
-0.01,-0.35,-0.884,-25.635,0.549,12.329
-0.001,-0.343,-0.875,-22.095,-1.587,12.573
0.004,-0.347,-0.868,-18.86,-1.221,12.207
0.006,-0.35,-0.867,-15.076,0,11.719
0.01,-0.35,-0.874,-11.719,1.892,12.024
-1.104,2.064,-0.284,-105.347,-127.563,140.625
-1.184,2.323,-0.329,-95.215,-100.403,125.61
-1.135,2.459,-0.306,-80.811,-44.128,140.991
-0.912,2.492,-0.334,-45.654,14.648,185.303
-0.601,2.483,-0.442,-4.272,36.621,230.286
-0.292,2.442,-0.568,23.254,14.099,250.488
0.04,2.307,-0.626,34.424,-14.465,243.469
0.232,2.266,-0.633,21.545,-25.635,207.886
0.368,2.115,-0.544,-6.042,-12.39,154.846
0.372,1.962,-0.389,-31.311,18.25,86.304
0.235,1.827,-0.202,-49.927,46.326,13.367
0.004,1.678,-0.017,-58.228,59.448,-47.119
-0.285,1.519,0.156,-54.443,63.538,-87.83
-0.51,1.361,0.301,-37.964,66.895,-104.919
-0.61,1.164,0.38,-14.587,66.04,-102.051
-0.656,0.965,0.387,7.141,56.274,-90.027
-0.669,0.861,0.367,20.569,43.945,-81.116
-0.628,0.842,0.346,25.635,40.466,-74.036
-0.537,0.855,0.357,23.865,46.631,-66.711
-0.458,0.911,0.383,19.836,54.871,-65.308
-0.393,0.989,0.404,18.86,62.073,-68.909
-0.372,1.075,0.401,21.423,67.81,-73.303
-0.319,1.143,0.393,26.794,73.242,-78.43
-0.253,1.193,0.37,32.227,77.942,-84.045
-0.209,1.252,0.36,37.72,78.247,-93.872
-0.176,1.297,0.3,41.809,81.787,-109.68
-0.159,1.301,0.244,40.71,104.797,-125
-0.122,1.271,0.207,29.175,138.245,-143.494
-0.03,1.227,0.204,10.864,174.683,-169.556
0.008,1.215,0.193,-11.169,206.482,-203.247
0.027,1.195,0.203,-37.598,233.398,-234.192
0.038,1.153,0.228,-62.988,257.202,-255.676
0.087,1.113,0.247,-82.458,278.198,-270.508
0.14,1.045,0.245,-97.168,295.532,-283.691
0.185,0.96,0.238,-110.779,310.547,-297.791
0.192,0.901,0.222,-122.62,323.853,-310.242
0.227,0.848,0.193,-133.24,336.365,-319.092
0.295,0.784,0.177,-145.447,345.398,-323.608
0.32,0.716,0.158,-156.128,351.501,-326.904
0.333,0.675,0.138,-165.161,357.056,-328.125
0.358,0.64,0.116,-173.828,363.22,-322.571
0.425,0.588,0.057,-179.443,367.493,-310.974
0.538,0.553,-0.007,-183.777,369.263,-300.11
0.624,0.519,-0.054,-189.331,372.681,-298.279
0.634,0.467,-0.071,-194.946,379.578,-303.528
0.647,0.391,-0.101,-197.998,388.489,-305.847
0.674,0.312,-0.133,-196.899,397.888,-303.772
0.718,0.251,-0.168,-192.322,403.931,-302.246
0.726,0.191,-0.234,-183.899,408.691,-306.152
0.706,0.155,-0.302,-174.927,411.377,-312.744
0.632,0.141,-0.354,-166.87,414.551,-316.101
0.555,0.1,-0.369,-159.18,416.748,-310.303
0.516,0.034,-0.39,-147.095,417.175,-294.739
0.489,-0.045,-0.437,-128.113,416.504,-277.649
0.472,-0.15,-0.504,-106.689,413.513,-263.611
0.442,-0.239,-0.581,-86.67,401.611,-249.146
0.394,-0.312,-0.658,-66.223,380.554,-235.901
0.336,-0.376,-0.732,-49.072,353.21,-225.769
0.294,-0.442,-0.799,-35.217,321.167,-217.041
0.253,-0.483,-0.865,-23.56,286.865,-209.412
0.203,-0.503,-0.932,-16.174,252.808,-201.233
0.188,-0.536,-0.975,-15.015,220.032,-190.979
0.167,-0.578,-0.989,-16.663,190.125,-179.016
0.152,-0.63,-0.99,-19.836,164.307,-166.443
0.131,-0.649,-0.963,-20.935,142.822,-153.137
0.121,-0.661,-0.94,-19.836,124.573,-139.954
0.117,-0.656,-0.923,-16.663,110.718,-128.052
0.1,-0.692,-0.925,-11.841,102.6,-117.92
0.089,-0.726,-0.949,-7.08,98.206,-106.628
0.097,-0.745,-0.972,-3.845,93.689,-93.994
0.124,-0.747,-0.991,-2.258,87.952,-81.299
0.149,-0.731,-1.005,-2.869,80.322,-71.045
0.177,-0.696,-1.005,-4.333,72.937,-62.256
0.199,-0.673,-1.005,-5.493,65.491,-55.664
0.206,-0.642,-1.008,-5.432,59.143,-52.49
0.195,-0.626,-1.033,-3.845,52.979,-51.453
0.173,-0.617,-1.066,-4.211,47.791,-48.889
0.158,-0.591,-1.077,-6.653,43.579,-44.312
0.141,-0.567,-1.077,-10.071,40.466,-38.879
0.127,-0.544,-1.073,-13.245,37.048,-33.447
0.105,-0.525,-1.077,-14.893,32.227,-28.076
0.081,-0.507,-1.082,-15.869,26.428,-23.01
0.076,-0.475,-1.067,-16.907,20.325,-18.372
0.061,-0.457,-1.057,-16.724,14.526,-15.015
0.037,-0.443,-1.051,-16.113,10.01,-13.428
0.016,-0.433,-1.044,-15.32,6.287,-11.23
0.006,-0.424,-1.025,-14.404,2.441,-8.301
0.013,-0.414,-1.017,-13.306,-0.916,-6.104
0.017,-0.393,-0.995,-13.55,-1.648,-5.493
0.015,-0.38,-0.962,-12.573,-4.028,-5.554
0.017,-0.371,-0.956,-10.071,-6.958,-4.517
0.019,-0.36,-0.955,-6.409,-9.399,-3.601
0.015,-0.361,-0.951,-4.15,-9.033,-2.075
0.01,-0.356,-0.948,-3.54,-6.592,-1.282
0.001,-0.344,-0.945,-3.662,-3.845,-1.77
-0.006,-0.337,-0.941,-2.991,-1.16,-2.625
-0.017,-0.34,-0.951,-1.77,1.404,-2.136
-0.026,-0.337,-0.967,-0.244,2.991,0.305
-0.03,-0.324,-0.974,-0.61,4.456,2.991
-0.026,-0.325,-0.981,-2.075,5.31,5.188
-0.021,-0.316,-0.986,-3.296,4.395,5.981
-0.014,-0.311,-0.983,-3.723,1.648,6.226
-0.012,-0.307,-0.98,-3.967,0.305,6.409
-0.003,-0.306,-0.98,-3.479,-0.854,5.798
0.001,-0.305,-0.984,-3.174,-1.038,4.7
0.01,-0.308,-0.98,-3.418,-0.061,3.845
0.012,-0.304,-0.978,-2.747,1.038,2.625
0.016,-0.319,-0.982,-1.465,1.343,2.075
0.011,-0.315,-0.984,-1.648,3.174,0.61
0.007,-0.308,-0.977,-1.953,4.7,0.732
0.007,-0.309,-0.972,-1.526,5.981,0.977
0.001,-0.312,-0.975,-0.549,7.324,0.244
-0.001,-0.308,-0.979,-0.488,7.446,-0.183
0,-0.306,-0.977,-0.427,7.08,-0.977
-0.01,-0.31,-0.986,-0.427,6.897,-2.014
-0.015,-0.307,-0.997,0.122,5.798,-1.404
-0.013,-0.292,-0.999,0.305,5.615,-0.427
-0.011,-0.289,-0.998,0.549,6.409,-0.366
-0.01,-0.299,-1.011,1.648,6.592,-0.549
-1.096,1.857,-0.17,-35.4,-147.644,174.805
-1.048,2.059,-0.216,-24.841,-101.013,186.768
-0.896,2.209,-0.243,-13.245,-81.299,205.322
-0.673,2.302,-0.222,-8.667,-90.149,213.867
-0.408,2.332,-0.133,-12.085,-93.384,204.529
-0.139,2.283,-0.032,-19.287,-70.862,172.424
0.041,2.175,0.033,-26.611,-28.259,120.239
0.114,2.004,0.058,-28.564,15.198,53.223
0.037,1.813,0.04,-24.78,47.119,-15.259
-0.146,1.595,0.027,-21.362,67.139,-72.693
-0.356,1.383,0.049,-18.982,81.421,-112.671
-0.518,1.194,0.1,-13.977,88.257,-131.531
-0.601,0.984,0.147,-5.737,85.266,-132.324
-0.63,0.748,0.189,-2.38,73.975,-124.756
-0.677,0.618,0.234,-6.47,65.857,-119.568
-0.696,0.619,0.29,-14.465,67.993,-114.929
-0.672,0.671,0.353,-22.156,73.425,-105.042
-0.567,0.748,0.401,-23.987,76.111,-95.337
-0.511,0.827,0.439,-25.574,75.806,-83.069
-0.421,0.933,0.474,-18.433,71.106,-75.134
-0.341,1.026,0.465,-4.517,63.477,-72.083
-0.289,1.076,0.435,10.071,57.129,-70.251
-0.267,1.123,0.386,22.583,55.115,-71.594
-0.246,1.128,0.333,29.358,57.678,-73.242
-0.221,1.13,0.283,30.701,61.096,-74.829
-0.209,1.136,0.252,27.344,61.707,-77.942
-0.194,1.143,0.238,18.555,61.523,-82.275
-0.147,1.153,0.243,7.385,65.552,-87.891
-0.065,1.158,0.258,-3.845,73.425,-97.961
-0.008,1.142,0.267,-15.32,84.045,-115.112
0.019,1.129,0.308,-28.381,100.952,-137.695
0.031,1.094,0.341,-39.856,124.817,-161.56
0.025,1.06,0.361,-47.852,150.757,-182.8
0.038,1.029,0.362,-52.49,171.082,-198.608
0.045,1,0.349,-54.626,179.993,-208.984
0.023,0.971,0.318,-57.19,179.932,-215.637
0.048,0.91,0.298,-63.232,179.199,-216.675
0.121,0.855,0.294,-72.571,180.786,-211.67
0.213,0.827,0.298,-83.069,182.129,-207.336
0.317,0.806,0.286,-94.116,181.091,-207.52
0.408,0.79,0.259,-105.652,181.091,-212.83
0.469,0.789,0.239,-120.911,189.148,-224.121
0.499,0.795,0.234,-137.329,206.116,-238.281
0.525,0.789,0.234,-153.748,226.99,-251.343
0.552,0.78,0.238,-165.649,246.704,-260.803
0.577,0.773,0.214,-172.791,260.437,-268.127
0.592,0.738,0.168,-177.49,266.541,-272.583
0.604,0.693,0.113,-184.082,267.578,-272.766
0.659,0.633,0.071,-193.237,265.808,-268.188
0.727,0.573,0.044,-201.538,264.526,-263.489
0.759,0.519,0.027,-207.703,264.404,-261.902
0.722,0.436,0.012,-203.491,267.334,-264.038
0.757,0.368,-0.005,-196.045,266.663,-265.381
0.746,0.313,-0.052,-185.547,270.813,-258.24
0.744,0.268,-0.106,-169.373,271.667,-250.122
0.686,0.12,-0.035,-145.569,267.822,-238.159
0.666,0.211,-0.27,-119.385,275.696,-215.393
0.806,0.177,-0.352,-130.554,269.409,-207.153
0.833,0.077,-0.363,-140.442,255.127,-208.618
0.756,0.082,-0.324,-114.136,251.77,-208.496
0.837,0.235,-0.437,-135.193,270.935,-211.914
0.797,0.065,-0.359,-130.493,280.823,-216.431
0.825,0.057,-0.419,-95.886,278.687,-229.614
0.794,0.008,-0.482,-75.806,276.245,-247.681
0.759,-0.054,-0.61,-59.265,266.846,-273.01
0.711,-0.15,-0.728,-49.5,250.244,-298.523
0.603,-0.163,-0.765,-49.866,234.741,-316.04
0.491,-0.182,-0.735,-60.547,228.271,-324.768
0.428,-0.267,-0.687,-71.289,228.516,-321.472
0.329,-0.339,-0.612,-69.946,224.915,-309.204
0.297,-0.433,-0.627,-54.993,212.097,-288.147
0.308,-0.538,-0.729,-29.175,192.444,-264.832
0.305,-0.563,-0.818,-10.803,170.959,-245.178
0.261,-0.542,-0.864,-6.958,153.137,-229.797
0.196,-0.551,-0.88,-11.597,142.212,-220.276
0.188,-0.614,-0.882,-16.724,135.01,-213.074
0.187,-0.638,-0.866,-20.386,131.226,-200.5
0.17,-0.65,-0.831,-24.353,127.502,-184.265
0.193,-0.665,-0.792,-25.818,123.23,-165.283
0.206,-0.682,-0.795,-20.691,118.408,-142.517
0.224,-0.675,-0.82,-11.353,110.352,-119.019
0.241,-0.656,-0.838,-3.357,99.06,-96.375
0.281,-0.614,-0.869,3.052,86.914,-79.102
0.301,-0.607,-0.884,8.301,77.637,-71.899
0.287,-0.617,-0.918,10.742,73.425,-70.801
0.25,-0.628,-0.961,11.23,70.923,-67.993
0.24,-0.638,-0.978,9.583,66.162,-63.11
0.218,-0.645,-0.983,5.676,62.622,-55.481
0.202,-0.632,-0.981,2.38,58.716,-46.082
0.194,-0.609,-0.982,0.732,52.612,-37.537
0.186,-0.581,-0.987,-1.099,46.448,-31.067
0.17,-0.561,-0.983,-2.136,41.138,-26.611
0.16,-0.552,-0.984,-1.953,36.072,-24.658
0.148,-0.549,-0.989,-1.099,30.762,-22.949
0.138,-0.544,-0.997,0.427,25.146,-20.447
0.14,-0.544,-1,0.183,19.47,-17.517
0.139,-0.54,-0.994,-1.465,14.221,-14.404
0.136,-0.523,-0.977,-3.601,8.301,-11.902
0.141,-0.508,-0.958,-5.005,2.441,-10.193
0.136,-0.497,-0.947,-5.615,-1.77,-10.193
0.129,-0.487,-0.937,-6.104,-4.272,-10.803
0.121,-0.481,-0.926,-6.165,-5.249,-11.292
0.113,-0.473,-0.917,-6.104,-5.493,-11.292
0.11,-0.473,-0.915,-4.944,-4.944,-11.414
0.102,-0.472,-0.915,-3.357,-4.089,-10.803
0.093,-0.46,-0.923,-2.38,-3.418,-9.338
0.087,-0.448,-0.933,-2.258,-3.052,-8.179
0.077,-0.431,-0.943,-2.319,-1.465,-8.118
0.069,-0.431,-0.954,-2.258,0.488,-9.583
0.054,-0.429,-0.965,-2.563,1.77,-11.169
0.042,-0.432,-0.977,-2.991,1.77,-12.207
0.033,-0.431,-0.977,-4.089,1.709,-12.512
0.023,-0.432,-0.979,-5.005,1.16,-12.512
0.023,-0.427,-0.97,-5.92,0.549,-11.963
0.028,-0.427,-0.959,-7.263,-0.061,-11.658
0.023,-0.429,-0.951,-7.324,-0.793,-11.841
0.028,-0.428,-0.94,-7.263,-1.16,-11.353
0.034,-0.431,-0.927,-7.141,-0.549,-10.681
0.036,-0.429,-0.921,-6.836,0.854,-10.681
-0.875,1.48,-0.727,-19.897,-73.12,115.356
-0.964,1.687,-0.802,-13.306,-89.417,133.057
-0.86,1.805,-0.714,-6.165,-92.896,167.725
-0.697,1.971,-0.605,3.052,-100.525,203.918
-0.45,2.045,-0.478,10.559,-107.422,233.582
-0.178,2.032,-0.335,13.55,-108.887,236.206
0.001,2.013,-0.219,9.338,-100.647,204.834
0.063,1.929,-0.112,-3.174,-78.125,148.743
0.014,1.801,-0.031,-16.907,-44.373,81.665
-0.113,1.66,0.031,-27.344,-7.751,14.893
-0.283,1.482,0.102,-34.363,17.7,-39.185
-0.484,1.314,0.199,-35.461,32.41,-78.064
-0.66,1.177,0.289,-27.344,42.297,-98.206
-0.758,1.061,0.343,-10.559,44.128,-96.375
-0.768,0.929,0.363,6.348,35.889,-79.346
-0.758,0.818,0.359,18.311,25.085,-60.791
-0.704,0.722,0.349,22.339,22.034,-50.293
-0.67,0.745,0.336,15.503,27.283,-48.767
-0.627,0.784,0.335,5.005,33.325,-46.753
-0.597,0.849,0.335,-1.831,37.415,-47.852
-0.543,0.92,0.33,-3.113,39.673,-49.988
-0.494,0.992,0.322,0.366,43.823,-51.88
-0.451,1.069,0.305,6.287,46.875,-55.847
-0.44,1.166,0.272,12.817,47.241,-61.096
-0.411,1.25,0.239,17.944,46.814,-67.017
-0.366,1.305,0.227,20.203,48.096,-74.951
-0.346,1.346,0.212,21.484,52.551,-88.44
-0.328,1.342,0.169,20.63,62.256,-108.093
-0.31,1.302,0.107,14.221,76.599,-130.859
-0.301,1.252,0.062,0.916,94.849,-156.311
-0.27,1.192,0.052,-18.311,117.676,-182.251
-0.24,1.129,0.069,-40.771,143.188,-206.543
-0.206,1.093,0.099,-62.622,165.161,-226.99
-0.166,1.075,0.145,-79.651,180.603,-242.249
-0.106,1.049,0.18,-90.027,188.965,-252.808
-0.043,1.037,0.183,-94.91,192.932,-261.353
0.021,1.025,0.17,-97.046,194.946,-272.705
0.058,1.035,0.138,-96.68,198.73,-287.048
0.071,1.006,0.077,-101.257,205.2,-304.565
0.092,0.953,0.032,-115.295,215.942,-320.679
0.133,0.888,0.029,-139.465,229.736,-330.383
0.201,0.828,0.074,-166.748,242.432,-333.191
0.274,0.764,0.134,-187.683,248.962,-331.726
0.333,0.711,0.188,-197.205,248.718,-326.05
0.384,0.672,0.213,-192.81,244.568,-317.017
0.455,0.641,0.225,-180.603,239.929,-306.458
0.535,0.612,0.209,-165.527,238.586,-299.133
0.585,0.608,0.156,-148.865,241.455,-298.279
0.623,0.614,0.075,-137.146,249.084,-302.979
0.681,0.607,0.006,-133.118,259.705,-310.73
0.729,0.593,-0.046,-136.414,274.17,-322.083
0.798,0.531,-0.091,-144.043,290.527,-334.9
0.855,0.473,-0.172,-149.658,306.58,-346.375
0.903,0.413,-0.217,-158.63,318.97,-358.643
0.906,0.34,-0.23,-168.152,326.355,-369.324
0.875,0.289,-0.211,-174.316,331.116,-377.747
0.826,0.233,-0.183,-175.537,337.097,-383.789
0.777,0.178,-0.158,-165.955,344.299,-385.681
0.706,0.109,-0.155,-147.522,349.548,-384.827
0.622,0.016,-0.189,-123.291,350.647,-381.775
0.54,-0.089,-0.244,-99.06,345.886,-374.451
0.514,-0.206,-0.307,-78.979,336.792,-361.572
0.377,-0.281,-0.354,-62.134,326.904,-345.215
0.342,-0.366,-0.384,-49.805,307.251,-331.055
0.306,-0.468,-0.4,-38.94,287.476,-313.965
0.269,-0.53,-0.421,-23.865,265.015,-299.5
0.259,-0.599,-0.462,-6.775,240.051,-287.537
0.242,-0.65,-0.5,9.644,217.407,-277.1
0.219,-0.719,-0.546,25.452,197.815,-268.555
0.203,-0.781,-0.591,36.743,181.458,-258.24
0.167,-0.835,-0.651,43.64,167.725,-243.835
0.143,-0.858,-0.706,45.654,156.982,-223.877
0.136,-0.88,-0.752,43.274,149.597,-199.89
0.141,-0.904,-0.79,37.048,144.531,-175.476
0.161,-0.912,-0.814,29.968,141.174,-153.015
0.174,-0.9,-0.829,24.719,137.329,-133.728
0.182,-0.859,-0.848,23.071,132.385,-118.164
0.191,-0.834,-0.875,26.123,125.793,-104.126
0.178,-0.804,-0.923,31.311,117.31,-92.102
0.16,-0.784,-0.982,36.926,108.704,-83.069
0.13,-0.773,-1.049,39.917,101.624,-74.585
0.1,-0.756,-1.109,38.94,94.055,-64.941
0.084,-0.743,-1.15,34.851,86.426,-54.077
0.08,-0.721,-1.18,29.175,77.393,-43.091
0.079,-0.684,-1.192,23.743,65.979,-33.325
0.083,-0.649,-1.192,18.86,52.612,-24.963
0.083,-0.616,-1.184,14.465,38.391,-19.226
0.077,-0.578,-1.174,11.536,24.536,-15.076
0.066,-0.534,-1.158,8.972,11.78,-11.719
0.061,-0.501,-1.14,7.324,2.441,-10.254
0.043,-0.477,-1.128,5.92,-2.991,-10.071
0.023,-0.466,-1.118,4.456,-5.249,-9.888
0.003,-0.45,-1.096,2.319,-6.653,-7.812
-0.005,-0.439,-1.094,0.061,-7.874,-5.371
-0.02,-0.434,-1.084,-4.272,-7.629,-4.211
-0.025,-0.416,-1.055,-8.118,-9.888,-2.747
-0.022,-0.394,-1.021,-10.742,-12.207,-0.061
-0.028,-0.379,-0.994,-11.047,-14.526,0.977
-0.035,-0.379,-0.973,-9.827,-15.625,1.404
-0.037,-0.368,-0.958,-9.094,-15.564,1.526
-0.038,-0.349,-0.945,-9.521,-12.817,0
-0.043,-0.352,-0.929,-10.864,-8.179,-1.404
-0.051,-0.361,-0.919,-11.597,-4.517,-0.854
-0.05,-0.355,-0.912,-12.39,-1.526,1.587
-0.031,-0.337,-0.895,-12.817,1.709,4.333
-0.017,-0.331,-0.878,-12.878,4.7,4.272
-0.013,-0.33,-0.869,-11.841,6.409,1.099
-0.018,-0.333,-0.875,-8.911,6.042,-2.197
-0.021,-0.342,-0.886,-5.981,5.493,-3.784
-0.028,-0.34,-0.899,-3.845,6.531,-4.456
-0.032,-0.343,-0.915,-2.625,8.606,-4.761
-0.027,-0.354,-0.93,-2.258,11.292,-4.517
-0.024,-0.354,-0.936,-1.587,13.245,-4.333
-0.02,-0.356,-0.949,-0.61,13.611,-4.028
-0.021,-0.352,-0.963,0.732,14.343,-4.456
-0.022,-0.354,-0.971,1.404,15.564,-4.578
-0.023,-0.362,-0.98,2.014,16.541,-4.15
-0.019,-0.369,-0.99,2.869,17.029,-3.54
-0.016,-0.372,-0.999,3.601,16.907,-2.747
-1.212,1.544,-0.58,-8.545,-61.584,174.011
-1.162,1.682,-0.681,-21.973,-50.354,170.654
-1.088,1.851,-0.711,-36.072,-39.917,170.166
-0.943,1.972,-0.682,-41.992,-33.691,175.659
-0.694,2.003,-0.621,-37.842,-30.396,179.443
-0.464,1.991,-0.554,-23.376,-30.762,169.128
-0.253,1.925,-0.497,-10.925,-31.494,145.142
-0.119,1.798,-0.472,-1.892,-26.123,110.046
-0.091,1.638,-0.45,0.183,-13.245,66.223
-0.136,1.44,-0.394,-5.859,5.432,19.958
-0.244,1.231,-0.295,-14.343,21.912,-21.667
-0.402,1.031,-0.201,-19.409,28.259,-55.237
-0.579,0.888,-0.098,-22.339,25.33,-75.5
-0.694,0.767,0.039,-26.184,17.7,-78.369
-0.725,0.669,0.206,-28.748,9.521,-66.101
-0.721,0.598,0.35,-27.344,1.465,-48.584
-0.69,0.608,0.45,-23.804,-4.028,-33.752
-0.659,0.618,0.505,-22.4,-6.409,-17.944
-0.609,0.672,0.525,-15.259,-5.066,-8.118
-0.567,0.753,0.503,-3.967,-1.221,-4.578
-0.532,0.821,0.456,6.47,2.197,-2.991
-0.489,0.878,0.402,14.526,5.92,-2.991
-0.45,0.958,0.338,18.921,8.911,-6.042
-0.429,1.027,0.288,16.479,10.559,-10.925
-0.399,1.092,0.263,9.705,15.076,-18.738
-0.371,1.151,0.253,2.625,23.315,-30.701
-0.35,1.209,0.246,-2.93,34.119,-47.18
-0.323,1.26,0.23,-4.822,46.326,-64.697
-0.287,1.285,0.21,-2.319,57.129,-80.994
-0.25,1.319,0.174,5.859,65.491,-97.351
-0.239,1.354,0.111,17.517,71.35,-115.662
-0.221,1.374,0.039,26.611,79.102,-136.536
-0.197,1.377,-0.03,31.372,92.468,-162.109
-0.2,1.401,-0.104,29.968,110.596,-192.627
-0.214,1.393,-0.171,22.034,132.629,-227.478
-0.185,1.37,-0.197,5.798,157.471,-262.146
-0.204,1.375,-0.213,-14.954,181.03,-294.739
-0.199,1.394,-0.21,-41.992,203.308,-324.524
-0.172,1.375,-0.19,-75.195,223.755,-347.229
-0.11,1.378,-0.163,-106.934,243.53,-369.69
-0.013,1.391,-0.092,-139.343,264.099,-392.822
0.058,1.396,-0.018,-168.579,284.851,-415.71
0.133,1.392,0.042,-186.951,308.777,-435.852
0.211,1.382,0.114,-196.838,333.679,-456.543
0.236,1.349,0.153,-200.989,361.511,-478.027
0.214,1.316,0.15,-200.562,396.118,-498.169
0.245,1.23,0.096,-201.843,434.387,-509.949
0.322,1.08,0.028,-208.13,463.623,-511.23
0.398,0.912,-0.027,-216.675,483.459,-508.85
0.458,0.768,-0.086,-225.22,495.422,-506.287
0.471,0.694,-0.104,-232.483,501.099,-504.15
0.476,0.604,-0.055,-237.854,503.357,-500.061
0.44,0.47,-0.02,-231.995,506.592,-491.577
0.333,0.331,0.035,-211.914,503.235,-476.44
0.234,0.133,0.041,-179.199,483.521,-447.083
0.177,-0.079,-0.062,-133.545,444.702,-403.015
0.162,-0.236,-0.208,-89.661,397.522,-355.896
0.16,-0.359,-0.335,-60.608,350.037,-314.27
0.165,-0.471,-0.424,-47.668,309.265,-281.616
0.141,-0.566,-0.464,-43.091,276.672,-258.118
0.105,-0.667,-0.476,-41.748,248.291,-236.572
0.074,-0.755,-0.49,-37.659,219.055,-216.187
0.069,-0.792,-0.489,-29.785,191.162,-197.083
0.084,-0.835,-0.491,-18.127,164.856,-179.993
0.109,-0.871,-0.518,-3.174,142.456,-168.335
0.13,-0.914,-0.567,12.268,125.366,-159.668
0.137,-0.951,-0.636,25.024,114.319,-149.658
0.136,-0.973,-0.708,33.142,107.727,-135.01
0.151,-1,-0.773,36.987,106.384,-115.356
0.182,-1.005,-0.823,37.659,107.422,-93.14
0.214,-0.986,-0.861,35.706,109.985,-72.266
0.249,-0.929,-0.877,33.142,113.586,-56.458
0.282,-0.875,-0.91,33.325,117.432,-47.302
0.307,-0.827,-0.969,35.828,118.896,-43.396
0.31,-0.793,-1.033,38.208,117.31,-42.48
0.295,-0.756,-1.098,39.856,110.779,-42.358
0.271,-0.726,-1.157,39.612,100.159,-39.673
0.25,-0.703,-1.218,37.537,84.778,-35.034
0.229,-0.664,-1.262,32.959,68.237,-29.114
0.224,-0.614,-1.267,25.513,53.467,-23.071
0.22,-0.572,-1.263,18.738,40.466,-19.897
0.218,-0.532,-1.251,14.038,29.541,-19.348
0.206,-0.499,-1.238,9.766,20.996,-20.508
0.183,-0.479,-1.232,6.165,13.672,-22.095
0.156,-0.466,-1.218,1.587,8.484,-22.705
0.135,-0.445,-1.188,-4.15,3.906,-20.874
0.117,-0.416,-1.151,-9.216,-1.099,-17.517
0.097,-0.391,-1.12,-13.123,-4.456,-15.137
0.078,-0.377,-1.091,-15.869,-5.493,-12.878
0.073,-0.359,-1.058,-17.944,-6.897,-10.803
0.075,-0.343,-1.019,-18.311,-8.728,-10.071
0.067,-0.337,-0.997,-16.724,-9.583,-10.986
0.054,-0.339,-0.993,-14.221,-10.254,-11.414
0.043,-0.341,-0.98,-12.207,-10.986,-10.376
0.048,-0.357,-0.98,-13.184,-8.728,-6.165
0.055,-0.314,-0.955,-17.273,-5.493,-5.676
0.049,-0.322,-0.926,-18.25,-3.906,-2.197
0.061,-0.295,-0.917,-16.296,-3.662,0.549
0.069,-0.275,-0.911,-12.146,-2.869,2.563
0.07,-0.28,-0.906,-8.484,-0.427,2.747
0.065,-0.272,-0.913,-6.165,3.296,-0.366
0.065,-0.269,-0.926,-4.089,7.446,-2.441
0.061,-0.263,-0.94,-2.93,11.169,-2.625
0.058,-0.268,-0.958,-1.953,14.099,-1.526
0.06,-0.27,-0.975,-1.892,14.587,0.61
0.064,-0.264,-0.983,-2.136,13.062,2.502
0.062,-0.25,-0.988,-3.357,11.902,2.563
0.064,-0.247,-0.987,-3.601,10.376,1.892
0.067,-0.247,-0.991,-2.319,8.667,0.793
0.069,-0.249,-0.998,-1.16,7.935,-1.099
0.062,-0.256,-1.008,-0.427,8.24,-3.296
0.059,-0.271,-1.018,-0.183,8.972,-4.15
0.055,-0.274,-1.022,-1.038,9.705,-3.296
0.059,-0.269,-1.019,-2.136,9.705,-1.587
0.065,-0.27,-1.012,-2.441,9.705,-0.793
0.062,-0.265,-1.011,-1.892,9.46,-1.221
0.063,-0.28,-1.016,-0.977,8.728,-1.221
0.07,-0.259,-1.014,-1.221,8.484,-3.54
0.065,-0.261,-1.012,-0.183,8.362,-4.578
-0.884,1.929,-0.49,109.375,-64.026,232.849
-0.902,2.258,-0.724,134.766,-95.642,248.352
-0.791,2.52,-0.837,147.583,-115.417,278.198
-0.527,2.7,-0.848,137.878,-119.507,308.228
-0.172,2.773,-0.76,103.943,-109.192,315.063
0.174,2.708,-0.585,51.392,-80.994,276.611
0.402,2.53,-0.342,-8.667,-31.372,190.369
0.44,2.263,-0.134,-58.105,33.325,75.623
0.256,1.96,0.001,-84.412,94.482,-40.466
-0.063,1.557,0.078,-93.018,130.859,-133.484
-0.464,1.202,0.19,-85.815,143.433,-186.951
-0.773,0.88,0.307,-63.477,136.353,-195.19
-0.98,0.641,0.393,-29.907,107.056,-161.56
-0.98,0.516,0.433,6.47,59.326,-106.567
-0.883,0.472,0.408,27.1,11.475,-41.87
-0.69,0.503,0.381,34.851,-11.23,7.08
-0.518,0.582,0.376,27.466,-13.672,28.32
-0.381,0.69,0.406,12.451,-4.028,25.208
-0.363,0.782,0.422,-0.916,10.62,10.986
-0.362,0.978,0.432,-15.625,23.926,-3.967
-0.364,1.024,0.492,-27.039,28.442,-6.653
-0.363,1.1,0.482,-28.076,25.452,-15.625
-0.381,1.126,0.459,-22.339,25.757,-19.165
-0.363,1.132,0.444,-13.733,27.649,-18.982
-0.326,1.137,0.413,-1.343,30.334,-21.484
-0.315,1.174,0.37,9.888,29.663,-29.175
-0.295,1.211,0.316,13.733,28.503,-35.706
-0.266,1.255,0.265,14.221,31.372,-39.49
-0.231,1.315,0.221,12.878,35.889,-45.105
-0.19,1.34,0.194,13.245,42.053,-53.528
-0.143,1.34,0.157,16.113,49.316,-67.261
-0.105,1.307,0.126,18.433,58.105,-84.351
-0.104,1.267,0.093,18.799,68.298,-103.333
-0.119,1.232,0.075,15.869,81.238,-122.131
-0.152,1.209,0.059,9.338,96.191,-138.062
-0.163,1.189,0.061,-1.953,112.488,-151.062
-0.145,1.178,0.09,-16.846,128.357,-161.255
-0.093,1.166,0.132,-33.386,141.907,-170.532
-0.033,1.179,0.18,-47.791,152.466,-181.58
0.032,1.19,0.212,-58.594,160.278,-195.923
0.106,1.185,0.237,-66.467,167.664,-213.074
0.156,1.195,0.257,-72.693,176.758,-234.131
0.183,1.176,0.258,-77.637,189.941,-259.521
0.182,1.145,0.249,-82.214,206.787,-285.217
0.186,1.11,0.235,-86.975,224.182,-307.922
0.194,1.057,0.213,-92.285,239.197,-324.402
0.225,0.992,0.186,-99.243,249.084,-334.656
0.288,0.923,0.158,-108.643,252.808,-339.233
0.379,0.871,0.132,-118.713,255.005,-342.346
0.451,0.836,0.106,-128.906,259.644,-349.426
0.494,0.806,0.104,-139.343,272.522,-361.206
0.525,0.753,0.109,-148.56,292.969,-375
0.576,0.707,0.132,-156.86,318.115,-388.55
0.619,0.637,0.15,-159.973,341.675,-404.602
0.629,0.561,0.181,-158.691,361.694,-420.593
0.605,0.498,0.221,-148.376,375.122,-434.204
0.603,0.39,0.214,-131.042,383.545,-444.641
0.599,0.238,0.149,-112.488,388.977,-452.515
0.568,0.102,0.103,-97.656,392.944,-457.825
0.53,0.011,0.084,-85.999,394.531,-458.74
0.514,-0.084,0.064,-73.608,399.536,-455.505
0.497,-0.198,0.053,-59.082,411.072,-454.529
0.395,-0.293,0.056,-43.091,427.307,-458.252
0.249,-0.395,0.075,-26.123,436.584,-454.895
0.126,-0.49,0.086,-1.465,429.016,-436.157
0.064,-0.617,0.021,34.241,406.616,-407.104
-0.007,-0.766,-0.127,72.815,373.901,-376.404
-0.044,-0.878,-0.322,99.548,334.656,-344.421
-0.045,-0.959,-0.474,108.276,298.95,-308.777
-0.035,-1.022,-0.563,101.501,274.231,-274.841
-0.026,-1.039,-0.595,91.309,259.644,-243.835
-0.024,-1.063,-0.624,86.182,249.512,-216.736
-0.034,-1.096,-0.688,84.839,235.779,-191.406
-0.045,-1.096,-0.758,84.9,218.14,-165.405
-0.042,-1.08,-0.838,84.106,197.144,-138.733
-0.04,-1.049,-0.944,82.092,175.842,-113.464
-0.027,-0.999,-1.048,76.721,158.386,-89.355
0.01,-0.953,-1.127,67.932,146.606,-67.322
0.049,-0.902,-1.18,57.556,137.512,-48.645
0.068,-0.852,-1.227,48.95,127.075,-32.654
0.084,-0.804,-1.272,42.236,115.662,-17.7
0.102,-0.736,-1.313,35.828,104.431,-4.639
0.111,-0.664,-1.353,29.724,93.811,5.554
0.116,-0.604,-1.374,22.888,84.29,13.672
0.123,-0.543,-1.384,16.052,73.792,18.982
0.129,-0.484,-1.392,10.437,59.937,21.729
0.121,-0.432,-1.39,4.761,45.593,21.301
0.107,-0.397,-1.368,-0.854,31.555,18.311
0.091,-0.375,-1.349,-4.333,15.869,14.709
0.082,-0.355,-1.324,-6.958,-0.427,11.169
0.066,-0.345,-1.286,-10.62,-14.16,8.24
0.044,-0.331,-1.226,-15.686,-23.56,6.042
0.031,-0.324,-1.154,-20.447,-29.48,5.92
0.017,-0.316,-1.123,-23.621,-32.593,6.897
0.006,-0.3,-1.06,-28.748,-28.931,6.409
0.008,-0.291,-0.989,-32.471,-27.649,7.141
0.018,-0.275,-0.931,-31.25,-26.062,8.545
0.024,-0.257,-0.888,-26.55,-25.391,7.751
0.012,-0.271,-0.871,-19.958,-21.973,7.263
0,-0.289,-0.869,-15.747,-16.296,5.31
-0.013,-0.291,-0.865,-14.832,-9.338,3.845
-0.014,-0.279,-0.848,-15.503,-4.089,4.883
-0.012,-0.271,-0.843,-13.733,0.488,6.287
-0.002,-0.28,-0.857,-10.193,3.296,8.057
0.001,-0.277,-0.869,-7.568,4.578,9.338
0.01,-0.281,-0.875,-6.287,6.165,9.705
0.017,-0.289,-0.886,-4.578,7.202,8.972
0.021,-0.303,-0.902,-2.808,7.385,7.629
0.023,-0.306,-0.92,-1.587,7.019,7.874
0.032,-0.305,-0.931,-1.221,7.874,8.423
0.044,-0.306,-0.934,-1.038,10.437,8.057
0.053,-0.313,-0.938,-0.427,13.062,6.897
0.063,-0.31,-0.947,1.099,13.977,5.859
0.069,-0.315,-0.962,2.93,14.099,4.395
0.068,-0.316,-0.977,3.723,14.282,2.991
0.068,-0.322,-0.991,3.845,14.038,2.563
0.066,-0.307,-0.996,3.601,13.489,0.244
0.059,-0.303,-1.001,3.723,12.512,-0.488
0.052,-0.303,-1.014,4.761,11.536,-1.038
-0.519,1.756,-0.319,-86.426,0.244,120.544
-0.358,1.872,-0.293,-75.806,-8.85,133.606
-0.16,1.951,-0.252,-66.895,-14.282,135.681
0.002,2.072,-0.2,-62.805,-11.78,122.375
0.151,2.099,-0.115,-64.819,-3.906,99.792
0.228,2.077,-0.014,-63.293,13.672,72.083
0.245,2.04,0.059,-55.42,30.457,44.067
0.236,1.956,0.092,-38.452,40.222,19.775
0.2,1.828,0.107,-18.738,40.833,0.671
0.144,1.677,0.109,-1.77,36.194,-15.259
0.066,1.514,0.104,8.972,32.654,-29.297
-0.015,1.355,0.128,13.062,32.898,-40.894
-0.116,1.216,0.168,13.184,33.203,-50.659
-0.217,1.087,0.223,9.888,31.372,-57.556
-0.309,0.978,0.292,4.883,30.518,-60.974
-0.382,0.923,0.361,-0.061,31.372,-61.401
-0.405,0.902,0.424,-2.502,32.898,-56.396
-0.381,0.901,0.465,-1.343,32.776,-47.791
-0.326,0.923,0.482,2.136,31.189,-39.307
-0.266,0.96,0.483,7.324,29.053,-33.569
-0.215,0.996,0.469,11.841,28.564,-31.616
-0.193,1.035,0.46,16.418,28.137,-32.715
-0.182,1.068,0.422,20.874,27.466,-34.119
-0.185,1.052,0.397,25.452,30.151,-30.701
-0.197,1.04,0.362,29.297,28.015,-27.954
-0.178,1.032,0.322,30.273,23.315,-25.574
-0.155,1.031,0.29,26.917,18.738,-25.085
-0.112,1.052,0.276,20.447,20.935,-30.334
-0.075,1.094,0.278,11.292,30.701,-39.978
-0.023,1.135,0.276,2.686,45.593,-53.711
0.011,1.145,0.27,-3.174,62.256,-69.153
0.028,1.166,0.25,-4.272,78.735,-87.28
0.05,1.146,0.229,0.671,96.985,-106.079
0.083,1.132,0.185,7.324,114.197,-126.892
0.065,1.096,0.137,13.428,132.996,-149.963
0.035,1.057,0.087,12.695,147.278,-175.415
0.001,1.013,0.038,4.944,161.987,-194.946
-0.018,0.97,0.008,-10.742,175.781,-206.36
0.014,0.956,-0.006,-32.837,185.608,-211.121
0.108,0.943,0.001,-56.702,193.359,-212.769
0.213,0.936,0.027,-80.322,201.721,-219.116
0.297,0.962,0.057,-102.295,214.172,-236.328
0.367,0.982,0.082,-120.972,233.948,-261.414
0.388,0.983,0.099,-137.817,260.01,-292.236
0.39,0.988,0.109,-154.236,290.588,-322.937
0.398,0.967,0.134,-169.678,321.35,-347.839
0.378,0.944,0.135,-183.289,350.281,-364.197
0.394,0.916,0.133,-195.618,376.465,-372.07
0.451,0.864,0.127,-208.191,398.804,-370.789
0.568,0.824,0.117,-218.079,414.429,-366.76
0.667,0.786,0.094,-220.886,427.002,-369.69
0.722,0.751,0.059,-217.468,445.74,-382.385
0.734,0.721,0.022,-206.787,470.276,-402.405
0.72,0.625,-0.049,-192.566,496.521,-422.791
0.704,0.517,-0.165,-181.519,522.949,-440.674
0.7,0.417,-0.23,-177.979,550.049,-457.703
0.637,0.274,-0.253,-179.871,572.266,-472.29
0.536,0.117,-0.239,-180.664,582.336,-481.201
0.367,-0.019,-0.179,-171.753,571.045,-478.088
0.156,-0.129,-0.076,-146.362,532.959,-455.994
0.061,-0.286,-0.085,-92.896,470.947,-415.283
0.036,-0.437,-0.283,-19.165,393.25,-372.925
0.027,-0.585,-0.562,36.865,316.223,-339.783
-0.012,-0.717,-0.774,54.26,252.197,-315.063
-0.075,-0.834,-0.865,38.818,204.285,-291.931
-0.082,-0.885,-0.816,6.897,166.443,-265.686
-0.094,-0.887,-0.694,-19.226,136.597,-235.718
-0.055,-0.862,-0.574,-26.55,112.915,-208.191
-0.024,-0.863,-0.525,-15.137,94.177,-185.364
0.012,-0.908,-0.57,5.493,82.825,-163.94
0.062,-0.961,-0.666,24.536,81.543,-142.944
0.102,-0.995,-0.747,33.325,89.905,-122.009
0.146,-0.995,-0.782,31.86,102.295,-101.074
0.19,-0.976,-0.799,28.687,110.962,-80.872
0.232,-0.948,-0.832,28.931,112.732,-65.002
0.254,-0.901,-0.892,31.982,109.558,-55.176
0.251,-0.834,-0.958,37.048,104.553,-47.791
0.24,-0.791,-1.024,43.152,98.511,-38.757
0.227,-0.75,-1.107,49.072,90.942,-30.518
0.213,-0.698,-1.178,52.185,81.787,-21.851
0.211,-0.656,-1.222,51.208,70.435,-14.221
0.202,-0.615,-1.251,47.424,56.519,-8.972
0.189,-0.564,-1.261,42.603,40.955,-6.714
0.166,-0.527,-1.251,36.499,25.513,-7.019
0.13,-0.493,-1.224,31.006,9.827,-9.705
0.078,-0.46,-1.201,26.794,-5.859,-13.672
0.016,-0.434,-1.182,23.254,-19.409,-17.151
-0.043,-0.395,-1.155,19.287,-29.846,-18.25
-0.086,-0.351,-1.126,16.174,-34.729,-16.785
-0.108,-0.321,-1.102,13.184,-32.227,-14.221
-0.118,-0.303,-1.076,10.132,-22.583,-10.376
-0.109,-0.286,-1.062,7.69,-10.498,-5.676
-0.094,-0.272,-1.06,6.226,1.77,-1.892
-0.07,-0.279,-1.062,4.333,12.512,1.77
-0.04,-0.287,-1.052,1.892,19.226,4.456
-0.029,-0.255,-1.042,-0.854,20.63,5.066
-0.006,-0.282,-1.029,-2.991,22.827,5.432
0.001,-0.237,-1.021,-5.432,21.118,-1.953
0.005,-0.267,-1.005,-6.104,16.541,-2.747
0.003,-0.272,-1.013,-4.578,10.193,-4.395
-0.01,-0.282,-1.023,-3.784,7.385,-5.676
-0.023,-0.279,-1.014,-5.371,9.277,-7.263
-0.033,-0.29,-1.008,-6.714,13.367,-8.667
-0.041,-0.294,-1.008,-7.751,16.785,-10.01
-0.052,-0.298,-1.016,-8.057,20.752,-9.949
-0.055,-0.296,-1.019,-8.423,24.231,-7.141
-0.052,-0.284,-1.027,-7.568,25.696,-4.333
-0.04,-0.292,-1.043,-7.08,26.55,-3.174
-0.037,-0.295,-1.056,-7.751,25.391,-2.502
-0.031,-0.28,-1.056,-8.545,22.705,-1.648
-0.028,-0.275,-1.053,-8.667,19.104,-1.343
-0.026,-0.281,-1.057,-8.118,15.808,-1.587
-0.023,-0.292,-1.059,-7.996,11.963,-0.854
-0.021,-0.282,-1.056,-8.85,7.69,0.854
-0.012,-0.261,-1.04,-9.644,5.188,2.319
-0.007,-0.255,-1.027,-9.949,4.15,2.747
-0.005,-0.258,-1.026,-8.728,3.54,2.38
-0.006,-0.254,-1.027,-8.179,3.357,2.258
-0.001,-0.236,-1.021,-7.751,3.418,1.953
-0.842,1.699,-0.739,44.861,-122.437,124.756
-0.829,1.923,-0.781,13.062,-99.609,139.16
-0.588,2.123,-0.646,-16.052,-61.035,169.8
-0.295,2.192,-0.424,-32.288,-36.133,194.031
-0.062,2.25,-0.195,-38.94,-36.682,187.683
0.153,2.221,-0.018,-38.391,-34.424,152.039
0.292,2.038,0.071,-36.316,-13.611,98.328
0.327,1.755,0.099,-31.738,24.536,27.161
0.128,1.601,0.055,-32.104,61.707,-49.194
-0.135,1.354,0.052,-34.485,87.036,-102.478
-0.429,1.168,0.061,-30.457,93.384,-126.282
-0.574,0.976,0.138,-19.104,78.979,-114.624
-0.621,0.871,0.19,-2.136,48.828,-79.651
-0.559,0.816,0.209,15.32,14.709,-35.95
-0.437,0.802,0.213,27.161,-10.498,-2.441
-0.345,0.811,0.225,27.771,-22.034,11.78
-0.318,0.847,0.248,19.165,-18.127,7.874
-0.34,0.886,0.313,7.935,-1.343,-5.066
-0.364,0.917,0.385,-0.061,13.55,-19.287
-0.414,0.948,0.437,-1.404,20.996,-28.259
-0.435,0.974,0.471,0.122,21.851,-30.273
-0.444,0.975,0.483,2.014,21.423,-25.574
-0.422,0.96,0.482,4.944,20.935,-19.043
-0.39,0.942,0.47,9.216,20.752,-15.137
-0.36,0.956,0.445,14.099,21.79,-15.015
-0.333,0.994,0.413,17.639,22.888,-16.113
-0.304,1.033,0.384,18.188,25.024,-18.127
-0.274,1.083,0.356,16.785,30.029,-22.705
-0.24,1.138,0.336,14.954,37.842,-30.579
-0.205,1.191,0.315,14.16,47.607,-40.161
-0.164,1.227,0.297,16.235,58.289,-52.429
-0.146,1.256,0.27,21.179,67.688,-66.406
-0.14,1.259,0.21,28.687,75.378,-82.642
-0.152,1.257,0.135,33.447,85.815,-97.778
-0.147,1.242,0.078,34.546,98.999,-113.037
-0.124,1.219,0.045,31.067,113.831,-132.141
-0.112,1.203,0.043,21.24,130.31,-153.992
-0.108,1.199,0.055,5.859,150.33,-177.429
-0.069,1.203,0.088,-13.184,174.255,-200.684
-0.018,1.208,0.116,-32.837,200.317,-224.609
0.025,1.208,0.139,-52.124,226.929,-248.901
0.066,1.224,0.151,-70.74,253.845,-273.254
0.15,1.251,0.151,-86.67,280.579,-297.974
0.242,1.272,0.16,-102.234,304.626,-323.669
0.293,1.27,0.182,-118.835,325.989,-354.37
0.274,1.228,0.18,-133.911,353.943,-387.878
0.26,1.147,0.176,-150.208,390.198,-415.833
0.264,1.028,0.192,-167.969,426.575,-429.382
0.288,0.904,0.179,-182.068,450.256,-430.115
0.392,0.787,0.149,-191.223,457.703,-423.035
0.468,0.698,0.075,-193.115,461.853,-417.053
0.51,0.653,0.007,-195.068,474.792,-417.786
0.524,0.611,0,-201.05,492.859,-420.227
0.548,0.546,0.005,-203.796,507.019,-418.274
0.577,0.441,-0.044,-194.641,514.038,-411.926
0.56,0.318,-0.123,-182.068,517.761,-406.006
0.509,0.21,-0.135,-173.096,518.86,-398.315
0.421,0.099,-0.11,-160.95,515.808,-381.714
0.357,-0.048,-0.162,-139.16,501.404,-355.896
0.34,-0.193,-0.288,-105.835,480.042,-330.017
0.335,-0.312,-0.418,-74.89,453.918,-311.401
0.277,-0.426,-0.549,-53.528,423.096,-299.438
0.193,-0.475,-0.648,-41.016,389.099,-287.781
0.157,-0.538,-0.681,-36.194,352.173,-271.851
0.132,-0.6,-0.71,-31.311,310.974,-252.808
0.14,-0.664,-0.741,-22.949,267.334,-237.854
0.116,-0.722,-0.787,-14.526,227.661,-226.196
0.094,-0.778,-0.853,-9.033,193.604,-214.172
0.08,-0.813,-0.876,-11.292,168.945,-198.547
0.076,-0.826,-0.848,-15.259,155.579,-179.138
0.087,-0.856,-0.797,-14.709,146.912,-158.997
0.099,-0.887,-0.784,-6.409,137.634,-139.404
0.133,-0.921,-0.821,4.578,127.075,-120.361
0.184,-0.941,-0.866,10.986,119.324,-105.225
0.225,-0.943,-0.879,9.583,115.662,-96.497
0.238,-0.962,-0.888,4.517,114.258,-91.919
0.251,-0.969,-0.89,-0.549,109.07,-85.876
0.263,-0.958,-0.895,-3.052,98.755,-75.195
0.294,-0.92,-0.892,-2.869,87.28,-63.721
0.305,-0.882,-0.893,-1.221,78.552,-54.565
0.292,-0.841,-0.911,1.526,71.655,-47.668
0.277,-0.804,-0.947,4.7,66.772,-40.344
0.257,-0.769,-0.992,7.629,61.584,-33.081
0.235,-0.734,-1.028,8.301,56.824,-27.1
0.209,-0.684,-1.056,7.446,51.147,-21.79
0.176,-0.642,-1.09,6.531,42.908,-16.663
0.147,-0.596,-1.116,5.676,32.349,-11.78
0.122,-0.542,-1.128,3.967,21.667,-8.179
0.091,-0.497,-1.13,2.258,11.841,-6.531
0.05,-0.458,-1.139,2.136,4.272,-6.165
0.011,-0.425,-1.148,1.953,-0.732,-5.676
-0.022,-0.395,-1.147,1.465,-3.54,-4.456
-0.046,-0.366,-1.138,0.793,-5.31,-2.686
-0.058,-0.359,-1.136,0.183,-5.432,-0.488
-0.074,-0.35,-1.131,-1.587,-5.554,1.77
-0.083,-0.329,-1.124,-4.333,-6.836,4.883
-0.085,-0.314,-1.098,-6.775,-9.583,8.362
-0.063,-0.344,-1.079,-9.827,-9.888,12.451
-0.05,-0.287,-1.045,-15.442,-10.498,10.254
-0.041,-0.29,-0.998,-17.09,-11.475,14.099
-0.016,-0.26,-0.96,-14.404,-13.123,14.648
-0.003,-0.266,-0.943,-10.071,-13.855,13.306
0,-0.27,-0.94,-6.775,-11.963,10.62
0.003,-0.281,-0.934,-5.615,-7.629,8.301
0.005,-0.282,-0.927,-6.714,-2.563,6.226
0.004,-0.271,-0.922,-7.935,2.136,5.127
0.008,-0.265,-0.919,-8.179,5.31,5.432
0.008,-0.264,-0.92,-7.263,7.141,5.493
0.006,-0.267,-0.925,-6.165,7.568,4.456
0.002,-0.265,-0.932,-5.249,6.958,2.319
-0.004,-0.272,-0.942,-4.578,6.775,0.366
-0.009,-0.278,-0.948,-3.845,7.935,-0.671
-0.012,-0.283,-0.951,-3.235,9.644,-1.16
-0.011,-0.286,-0.955,-1.892,11.047,-0.793
-0.007,-0.287,-0.96,-0.427,12.634,-0.671
0.001,-0.289,-0.965,1.038,13.367,-0.183
0.009,-0.294,-0.974,2.747,12.817,-0.244
0.01,-0.299,-0.982,3.601,12.329,-0.366
0.015,-0.304,-0.99,4.333,11.841,0
-0.625,1.995,-0.513,55.237,-118.042,212.463
-0.453,2.12,-0.549,30.823,-101.624,212.83
-0.224,2.202,-0.434,-6.897,-71.289,202.026
0.006,2.198,-0.255,-40.588,-37.354,170.532
0.17,2.137,-0.102,-58.105,-7.08,121.338
0.262,2.009,-0.028,-56.702,23.499,65.735
0.236,1.891,-0.003,-46.631,48.218,12.024
0.16,1.702,0.002,-36.499,60.364,-28.076
0.032,1.508,0.004,-24.109,64.087,-55.542
-0.094,1.294,0.024,-12.512,58.655,-70.007
-0.212,1.109,0.065,-3.235,47.485,-72.876
-0.297,0.982,0.116,1.953,31.128,-68.542
-0.346,0.897,0.173,0.977,14.16,-56.519
-0.374,0.847,0.236,-3.601,2.441,-41.321
-0.357,0.815,0.315,-7.874,-0.732,-30.151
-0.341,0.829,0.391,-10.681,-1.038,-28.137
-0.358,0.863,0.415,-13.184,-1.16,-30.701
-0.357,0.887,0.424,-13.794,8.179,-28.992
-0.332,0.912,0.429,-14.099,18.372,-27.222
-0.323,0.943,0.424,-12.878,22.278,-28.259
-0.33,0.963,0.414,-9.338,24.414,-27.771
-0.324,0.984,0.404,-5.188,24.353,-26.428
-0.314,1.014,0.392,-0.793,23.132,-23.987
-0.288,1.07,0.37,3.357,22.156,-22.461
-0.258,1.131,0.343,5.798,23.499,-23.01
-0.196,1.177,0.32,6.287,29.846,-27.954
-0.121,1.223,0.287,7.568,40.039,-39.429
-0.072,1.254,0.233,9.155,51.331,-58.716
-0.041,1.26,0.182,9.583,68.176,-82.825
-0.03,1.253,0.142,10.254,90.21,-108.765
-0.055,1.25,0.104,11.292,112.732,-134.216
-0.098,1.233,0.069,11.963,133.301,-156.677
-0.137,1.188,0.03,11.108,152.161,-173.828
-0.167,1.144,-0.004,5.737,165.833,-184.937
-0.169,1.092,-0.035,-4.333,173.828,-188.049
-0.139,1.052,-0.059,-17.151,176.025,-187.073
-0.099,1.014,-0.064,-33.752,176.27,-184.937
-0.023,1.01,-0.036,-51.392,179.932,-182.739
0.097,1.02,0.005,-65.857,187.622,-184.692
0.213,1.017,0.062,-76.843,195.618,-196.106
0.266,1.011,0.106,-85.327,205.261,-216.858
0.255,1.032,0.151,-93.262,219.849,-239.319
0.244,1.009,0.17,-100.83,240.723,-257.446
0.218,0.981,0.179,-110.229,262.451,-268.616
0.192,0.944,0.175,-118.164,280.029,-270.813
0.208,0.859,0.149,-123.23,285.156,-261.719
0.26,0.747,0.091,-124.268,274.414,-243.286
0.339,0.683,0.034,-120.422,251.099,-221.497
0.433,0.624,-0.021,-114.99,223.267,-201.355
0.514,0.597,-0.077,-111.45,200.073,-188.049
0.563,0.603,-0.123,-111.816,191.895,-182.861
0.617,0.61,-0.143,-117.615,198.547,-181.458
0.685,0.598,-0.138,-126.343,212.463,-180.847
0.737,0.583,-0.12,-132.751,223.816,-180.908
0.776,0.561,-0.109,-134.155,228.149,-180.054
0.809,0.525,-0.122,-129.7,223.633,-175.842
0.87,0.481,-0.139,-121.094,216.187,-170.227
0.942,0.436,-0.179,-109.741,209.595,-167.053
0.978,0.39,-0.235,-96.985,205.2,-170.166
0.997,0.323,-0.291,-86.792,205.322,-176.819
0.99,0.274,-0.354,-80.078,206.055,-183.35
0.976,0.223,-0.423,-76.172,207.336,-188.965
0.968,0.165,-0.48,-79.041,212.097,-192.749
0.992,0.123,-0.5,-86.182,216.736,-196.228
1.015,0.083,-0.504,-92.712,222.839,-205.811
1.016,0.053,-0.5,-96.252,232.971,-222.9
0.986,0.036,-0.482,-96.802,245.911,-243.896
0.933,-0.001,-0.461,-95.459,259.338,-263.428
0.863,-0.062,-0.458,-89.783,271.24,-278.503
0.798,-0.113,-0.464,-80.322,280.273,-289.978
0.732,-0.161,-0.495,-67.566,289.185,-299.988
0.668,-0.221,-0.545,-53.894,297.668,-310.547
0.58,-0.269,-0.592,-43.64,305.237,-321.716
0.491,-0.303,-0.626,-36.194,310.242,-332.947
0.41,-0.363,-0.63,-31.616,312.378,-341.797
0.312,-0.411,-0.647,-25.879,309.204,-348.389
0.23,-0.456,-0.676,-16.785,300.415,-352.051
0.138,-0.522,-0.666,-9.399,287.048,-350.525
0.045,-0.611,-0.628,-5.554,264.099,-342.041
-0.018,-0.708,-0.599,1.831,229.187,-321.411
-0.047,-0.797,-0.616,12.695,188.904,-290.71
-0.044,-0.845,-0.635,18.677,156.921,-256.897
-0.048,-0.879,-0.625,15.625,139.587,-224.792
-0.075,-0.896,-0.599,8.667,134.521,-196.411
-0.113,-0.878,-0.583,5.493,135.803,-169.373
-0.138,-0.84,-0.602,9.216,138.062,-142.639
-0.14,-0.803,-0.655,18.677,139.099,-118.53
-0.149,-0.801,-0.75,31.189,136.719,-97.961
-0.148,-0.803,-0.869,41.504,127.625,-80.017
-0.145,-0.792,-0.983,48.34,112.915,-62.012
-0.138,-0.775,-1.091,49.194,93.689,-43.762
-0.12,-0.744,-1.184,45.654,74.28,-26.794
-0.109,-0.689,-1.242,38.33,56.824,-9.338
-0.074,-0.619,-1.268,29.785,42.48,6.592
-0.04,-0.536,-1.279,23.499,32.349,19.958
0.007,-0.474,-1.294,20.325,23.865,26.855
0.031,-0.432,-1.315,19.836,18.372,31.494
0.041,-0.406,-1.342,19.836,12.878,32.288
0.042,-0.392,-1.364,17.151,7.263,32.043
0.047,-0.367,-1.348,10.498,0.549,31.738
0.05,-0.335,-1.309,2.869,-7.69,29.236
0.038,-0.32,-1.264,-2.869,-17.273,24.78
0.017,-0.303,-1.221,-7.385,-25.879,19.958
0.002,-0.297,-1.159,-12.024,-31.86,15.564
-0.017,-0.295,-1.098,-15.747,-37.292,13
-0.033,-0.29,-1.046,-17.822,-42.542,12.451
-0.041,-0.28,-0.996,-19.409,-44.617,12.39
-0.051,-0.276,-0.949,-20.691,-42.847,11.841
-0.061,-0.264,-0.907,-21.179,-38.696,10.986
-0.067,-0.25,-0.876,-19.592,-33.813,9.338
-0.077,-0.255,-0.865,-17.151,-27.283,6.714
-0.089,-0.261,-0.861,-14.893,-20.996,4.456
-0.1,-0.268,-0.863,-12.878,-16.235,3.113
-0.107,-0.266,-0.868,-10.925,-11.658,2.258
-0.115,-0.272,-0.877,-9.033,-7.141,2.014
-0.116,-0.282,-0.89,-7.385,-4.15,3.174
-0.108,-0.285,-0.906,-6.714,-1.77,5.066
-0.098,-0.287,-0.906,-6.653,0.549,7.019
-0.084,-0.297,-0.91,-5.615,3.601,8.789